TimeStamp(s),FrameCounter,AccX,AccY,AccZ,GyrX,GyrY,GyrZ,EulerX,EulerY,EulerZ
0.01,1,-0.053,-1.004,0.052000000000000005,3.8961144,0.6875496,-2.4064236,92.68741566,-1.23758928,-30.14904996
0.02,2,-0.055,-1.006,0.053,4.0680017999999984,3.3804522000000006,-3.3804522000000006,92.72752272,-1.2032117999999998,-30.11467248000001
0.03,3,-0.052000000000000005,-1.011,0.056,3.666931200000001,4.7555514,-3.8388186,92.7619002,-1.1688343199999998,-30.06310626
0.04,4,-0.044,-1.016,0.055,3.2085648,5.958763200000001,-4.2398892,92.7905481,-1.12872726,-30.000080879999995
0.05,5,-0.034,-1.018,0.052000000000000005,2.3491278,6.875496000000001,-4.4117766,92.80773684,-1.09434978,-29.93132592
0.060000000000000005,6,-0.034,-1.02,0.051,1.6042823999999998,7.5057497999999985,-4.6982556,92.819196,-1.05424272,-29.8511118
0.06999999999999999,7,-0.041,-1.021,0.046,0.9740286,8.307891,-5.2712136,92.83065516000002,-1.00840608,-29.77089768
0.08,8,-0.047,-1.025,0.044,0.5156622000000001,9.797581800000001,-6.0733548,92.83065516000002,-0.95683986,-29.66776524
0.09,9,-0.06,-1.029,0.044,0.0,11.917526400000002,-7.161975,92.82492558,-0.89381448,-29.54744406
0.09999999999999999,10,-0.073,-1.035,0.043,-0.5156622000000001,14.610429000000002,-8.193299399999999,92.81346642,-0.83651868,-29.39274540000001
0.11,11,-0.08,-1.041,0.037000000000000005,-1.2605076000000002,17.761698000000006,-9.224623800000002,92.79627768,-0.75630456,-29.20939884
0.12,12,-0.081,-1.037,0.03,-2.291832,20.912967,-10.026765,92.7619002,-0.67609044,-29.003133960000003
0.13,13,-0.077,-1.028,0.025,-3.7815227999999994,25.210152,-10.8289062,92.72179314,-0.5844171599999999,-28.74530286
0.14,14,-0.064,-1.017,0.018000000000000002,-4.583664,28.361421000000004,-11.516455800000001,92.66449734,-0.49274388,-28.46455344
0.15000000000000002,15,-0.049,-1.007,0.013,-4.6409598,30.93973200000001,-11.8602306,92.60720154,-0.4010706000000001,-28.14942654
0.16,16,-0.027000000000000003,-0.996,0.01,-4.4117766,33.3461556,-11.4018642,92.55563532,-0.31512690000000004,-27.8171109
0.17,17,0.005,-0.975,0.011,-3.7815227999999994,34.4347758,-9.969469199999999,92.50979868,-0.24064236,-27.473336100000004
0.18000000000000002,18,0.036000000000000004,-0.96,0.024,-3.0939732,34.3201842,-8.021412000000002,92.46969162,-0.18334656,-27.1295613
0.19,19,0.055,-0.949,0.045,-2.1199446,33.6326346,-6.302537999999998,92.4467733,-0.14323950000000002,-26.79724566
0.2,20,0.05,-0.949,0.063,-0.9740286,32.7159018,-5.1566220000000005,92.42958456,-0.10313244,-26.47638918
0.21000000000000002,21,0.043,-0.953,0.07400000000000001,-0.11459160000000003,30.7105488,-4.010706000000001,92.42385498,-0.0859437,-26.166991860000003
0.22,22,0.043,-0.958,0.085,-0.11459160000000003,28.4187168,-3.3804522000000006,92.4181254,-0.07448454,-25.88624244
0.23,23,0.045,-0.966,0.092,-0.4583664000000001,25.6685184,-2.4637194,92.40666624,-0.06302537999999999,-25.63414092
0.24000000000000002,24,0.046,-0.97,0.098,-0.8021411999999999,23.5485738,-1.3178034,92.39520708,-0.06875496,-25.39922814
0.25,25,0.047,-0.97,0.109,-0.4010706,21.829699800000004,-0.1718874,92.40093666,-0.06302537999999999,-25.19296326000001
0.26,26,0.044,-0.969,0.119,0.6302538000000001,19.0222056,1.2032118,92.40666624,-0.09167328,-25.00388712
0.27,27,0.037000000000000005,-0.967,0.134,2.2345362,15.469866,2.1199446,92.42385498,-0.12032118,-24.85491804
0.28,28,0.032,-0.975,0.154,3.4950437999999995,12.7769634,2.6356068,92.45823246,-0.16042824,-24.72886728
0.29000000000000004,29,0.025,-0.985,0.168,4.8128472,9.2819196,2.7501984,92.5040691,-0.18907614,-24.637194
0.3,30,0.013,-1.006,0.17600000000000002,5.2712136,6.8182002000000015,1.8907613999999997,92.60147196,-0.20626488,-24.57416862
0.31,31,-0.001,-1.029,0.181,4.9847345999999995,4.7555514,0.5156622000000001,92.65303818,-0.21199446,-24.52833198
0.32,32,-0.016,-1.045,0.183,4.1252976000000015,3.151269,-1.0313244,92.69314524,-0.20626488,-24.4939545
0.33,33,-0.03,-1.055,0.179,2.9220857999999996,2.6929026,-2.9793816000000004,92.72179314,-0.17761697999999998,-24.4653066
0.34,34,-0.039,-1.055,0.171,1.7761698,2.86479,-4.6409598,92.73898188,-0.13178034,-24.43092912
0.35000000000000003,35,-0.038,-1.044,0.161,0.9740286,3.666931200000001,-6.1879464,92.78481852,-0.09167328,-24.39082206
0.36000000000000004,36,-0.026,-1.024,0.158,0.3437748,4.6409598,-7.2765666,92.78481852,-0.02291832,-24.33925584
0.37,37,-0.011,-1.008,0.159,0.057295800000000015,4.8701430000000006,-8.307891,92.78481852,0.05156622,-24.28768962
0.38,38,0.003,-0.993,0.161,-0.057295800000000015,4.4690724,-9.167328,92.78481852,0.13750992,-24.236123400000004
0.39,39,0.015,-0.983,0.16399999999999998,-0.4583664000000001,4.010706000000001,-9.9121734,92.77908894,0.23491278,-24.19028676000001
0.4,40,0.023,-0.976,0.166,-0.9740286,3.6096354,-10.4851314,92.80200726,0.34950438,-24.15590928
0.41000000000000003,41,0.035,-0.968,0.17,-1.6615782,2.1199446,-10.7143146,92.78481852,0.4526368200000001,-24.13299096
0.42000000000000004,42,0.047,-0.966,0.172,-2.6929026,-0.6302538000000001,-10.7716104,92.75617062,0.56149884,-24.13299096
0.43,43,0.06,-0.968,0.172,-3.7815227999999994,-3.7815227999999994,-10.9434978,92.72179314,0.67609044,-24.16163886
0.44,44,0.07200000000000001,-0.974,0.17600000000000002,-4.1252976000000015,-6.417129599999999,-11.3445684,92.6759565,0.7906820400000001,-24.22466424
0.45,45,0.081,-0.972,0.18,-3.666931200000001,-9.969469199999999,-10.7716104,92.66449734,0.92819196,-24.32779668
0.46,46,0.087,-0.965,0.179,-2.4637194,-11.516455800000001,-9.3392154,92.63584944,1.0255948199999998,-24.4366587
0.47000000000000003,47,0.097,-0.966,0.182,-0.9740286,-12.7196676,-7.3911582,92.62439028,1.11153852,-24.55697988
0.48000000000000004,48,0.104,-0.976,0.188,-0.572958,-14.8396122,-5.443101,92.6186607,1.1745638999999999,-24.70021938
0.49,49,0.109,-0.985,0.19,-0.6302538000000001,-17.5325148,-3.4377480000000005,92.61293112,1.22040054,-24.87210678000001
0.5,50,0.107,-0.99,0.192,-0.9167328,-20.05353,-1.3750992,92.63011986,1.27769634,-25.08410124000001
0.51,51,0.101,-0.995,0.19,-1.7761698,-22.4026578,0.4583664000000001,92.60720154,1.2891555000000001,-25.30182528000001
0.52,52,0.092,-1.003,0.182,-2.7501984,-24.637194,1.8907613999999997,92.57855364,1.2891555000000001,-25.54819722
0.53,53,0.085,-1.005,0.17800000000000002,-4.9847345999999995,-26.814434400000003,3.0939732,92.52698742,1.27769634,-25.8117579
0.54,54,0.077,-1.008,0.166,-5.958763200000001,-28.074942,3.5523396000000003,92.46396204,1.2605076000000002,-26.09250732000001
0.55,55,0.063,-1.018,0.147,-6.703608600000001,-28.4187168,3.8388186,92.40093666,1.24904844,-26.37898632000001
0.56,56,0.044,-1.025,0.14,-7.2765666,-27.501984000000004,3.9534102,92.32645212,1.22613012,-26.65400616
0.5700000000000001,57,0.024,-1.032,0.135,-7.161975,-25.2674478,3.9534102,92.25196758,1.2032117999999998,-26.90610768
0.5800000000000001,58,0.016,-1.039,0.124,-6.9327918,-22.2307704,4.010706000000001,92.17748304,1.18029348,-27.1295613
0.59,59,0.022,-1.039,0.117,-6.760904399999999,-19.0222056,4.2398892,92.10872808,1.1459160000000002,-27.31863744
0.6,60,0.036000000000000004,-1.035,0.127,-5.844171599999999,-16.4438946,4.583664,92.06289144000002,1.1172681,-27.48479526
0.61,61,0.051,-1.034,0.147,-4.1252976000000015,-14.896907999999998,5.2712136,92.02278438,1.07716104,-27.63376434000001
0.62,62,0.059,-1.028,0.161,-3.4377480000000005,-15.2979786,6.0733548,91.98267732,1.0255948199999998,-27.788463
0.63,63,0.066,-1.016,0.173,-1.9480572,-15.756345000000001,6.9327918,91.96548857999998,0.96256944,-27.94889124
0.64,64,0.079,-1.011,0.189,-0.4583664000000001,-17.18874,7.906820400000001,91.959759,0.89381448,-28.120778640000005
0.65,65,0.08900000000000001,-1.011,0.196,0.6302538000000001,-19.7097552,8.7662574,91.9884069,0.83651868,-28.32704352
0.66,66,0.071,-1.041,0.184,1.2032118,-24.637194,8.7662574,91.99986606,0.76776372,-28.57341546
0.67,67,-0.021,-1.129,0.165,2.5210152000000003,-29.67922440000001,5.3285094000000015,92.02851396,0.73338624,-28.86562404
0.68,68,-0.112,-1.287,0.185,9.797581800000001,-20.8556712,-2.8074942000000003,92.12591682,0.7734933,-29.07188892
0.6900000000000001,69,-0.111,-1.315,0.165,0.8021411999999999,-4.9274388,-9.8548776,92.13737598,0.87662574,-29.11199598
0.7000000000000001,70,-0.083,-1.194,0.16,-5.443101,4.297185,-10.5424272,92.09726892,0.96256944,-29.06042976
0.7100000000000001,71,-0.028,-1.087,0.177,-8.880849000000003,9.797581800000001,-7.7922288,92.00559564,1.0313244,-28.9630269
0.72,72,0.019,-1.013,0.11,-10.5424272,7.9641161999999985,-5.5003968,91.89673362,1.08289062,-28.88281278
0.73,73,0.037000000000000005,-1.04,0.053,1.9480572,0.22918320000000006,-6.875496000000001,91.91965194,1.15164558,-28.877083199999998
0.74,74,0.067,-1.134,0.086,7.2192707999999985,-3.9534102,-7.5630456000000015,91.99413648,1.2318597,-28.91719026
0.75,75,0.125,-1.136,0.139,1.6042823999999998,-3.4950437999999995,-6.417129599999999,92.02851396,1.3464512999999998,-28.9630269
0.76,76,0.195,-1.08,0.095,-0.3437748,-6.9327918,-1.9480572,92.02851396,1.36936962,-29.03178186
0.77,77,0.217,-1.055,0.043,-0.11459160000000003,-24.2934192,5.72958,92.02278438,1.32353298,-29.27242422
0.78,78,0.175,-1.05,0.049,-2.291832,-34.5493674,11.2872726,91.99413648,1.23758928,-29.621928600000004
0.79,79,0.117,-1.032,0.016,-2.9220857999999996,-40.393539,14.0947668,91.96548857999998,1.1172681,-30.022999200000005
0.8,80,0.069,-0.989,-0.009000000000000001,-2.578311,-43.258329,14.152062599999999,91.92538152,1.00840608,-30.45844728
0.81,81,0.034,-0.948,-0.018000000000000002,-1.7761698,-44.06047020000001,13.0061466,91.90819278,0.90527364,-30.89962494
0.8200000000000001,82,0.013,-0.926,-0.054000000000000006,-2.86479,-45.3782736,12.4331886,91.87954488,0.8136003599999999,-31.352261760000005
0.8300000000000001,83,-0.011,-0.916,-0.08,-4.6982556,-48.3576552,12.032117999999999,91.82797866,0.72192708,-31.83354648000001
0.8400000000000001,84,-0.031,-0.903,-0.086,-6.760904399999999,-50.82137460000001,11.172681,91.76495328,0.63598338,-32.3434791
0.85,85,-0.033,-0.88,-0.105,-9.8548776,-53.628868800000006,10.1986524,91.65036168,0.56149884,-32.876330040000006
0.86,86,-0.027000000000000003,-0.8590000000000001,-0.115,-12.7196676,-54.94667220000001,8.651665800000002,91.52431092,0.5042030399999999,-33.42064014
0.87,87,-0.035,-0.862,-0.104,-15.126091199999998,-54.3164184,6.8182002000000015,91.37534184,0.46409598,-33.95922066
0.88,88,-0.052000000000000005,-0.892,-0.103,-17.0168526,-52.8840234,4.9847345999999995,91.20345444,0.44117766,-34.48634202
0.89,89,-0.073,-0.933,-0.1,-17.9908812,-51.33703679999999,3.666931200000001,91.02583746,0.4297185000000001,-34.99627464
0.9,90,-0.099,-0.969,-0.093,-17.7044022,-48.8160216,3.0366774,90.83676132,0.40680018,-35.47755936
0.91,91,-0.118,-0.994,-0.08900000000000001,-16.042824000000003,-45.4355694,2.8074942000000003,90.67633308,0.39534102,-35.93019618
0.92,92,-0.123,-1.007,-0.065,-13.8082878,-41.3102718,3.0366774,90.53882316,0.37815228,-36.33699636
0.93,93,-0.11,-1.018,-0.052000000000000005,-11.0580894,-34.7785506,3.9534102,90.42996114,0.34950438,-36.68650074
0.9400000000000001,94,-0.087,-1.033,-0.048,-9.224623800000002,-31.054323600000004,5.3285094000000015,90.33828786,0.30366774,-36.99589806
0.9500000000000001,95,-0.066,-1.0490000000000002,-0.037000000000000005,-7.6776372,-29.1062664,7.3911582,90.25234416,0.22918320000000003,-37.28237706
0.9600000000000001,96,-0.052000000000000005,-1.063,-0.028,-6.6463128000000005,-27.9603504,9.6829902,90.18931878,0.14323950000000002,-37.5573969
0.97,97,-0.042,-1.062,-0.02,-6.3598338,-27.1009134,12.032117999999999,90.1262934,0.03437748,-37.82668716
0.98,98,-0.04,-1.0490000000000002,-0.013,-6.875496000000001,-25.496631,14.4385416,90.06326802,-0.09740286,-38.07878868
0.99,99,-0.036000000000000004,-1.033,-0.019,-6.8182002000000015,-24.4080108,17.18874,89.99451306,-0.26356068,-38.32516062000001
1.0,100,-0.033,-1.008,-0.016,-6.1879464,-24.9809688,19.767051,89.93148768,-0.45836640000000006,-38.57153256
1.01,101,-0.038,-0.975,-0.01,-4.5263682,-27.215505,21.829699800000004,89.8971102,-0.66463128,-38.84082282
1.02,102,-0.062,-0.961,0.017,-3.8388186,-27.788463,23.2620948,89.86273272,-0.89381448,-39.11584266
1.03,103,-0.078,-0.954,0.036000000000000004,-3.5523396000000003,-27.2728008,24.5226024,89.83408482,-1.12872726,-39.38513292
1.04,104,-0.095,-0.945,0.044,-3.6096354,-27.1009134,24.8090814,89.8111665,-1.36936962,-39.65442318
1.05,105,-0.128,-0.941,0.06,-3.2085648,-27.1582092,24.2934192,89.79397776,-1.62147114,-39.91798386
1.06,106,-0.168,-0.949,0.085,-3.724227,-25.4393352,23.5485738,89.76532986,-1.85065434,-40.17008538
1.07,107,-0.199,-0.959,0.08800000000000001,-4.5263682,-23.204799,22.5745452,89.73095237999998,-2.06837838,-40.39926858
1.08,108,-0.225,-0.957,0.087,-5.5003968,-20.3973048,21.199446,89.68511574,-2.2746432600000004,-40.60553346
1.09,109,-0.25,-0.949,0.085,-6.3598338,-15.813640800000002,18.5065434,89.63354952,-2.45798982,-40.76023212
1.1,110,-0.268,-0.944,0.086,-7.3911582,-11.2872726,15.813640800000002,89.5819833,-2.6699842800000004,-40.8519054
1.11,111,-0.277,-0.943,0.095,-8.250595200000001,-5.7868758000000025,13.407217200000002,89.50176918,-2.80176462,-40.90920120000001
1.12,112,-0.279,-0.947,0.092,-9.1100322,-0.5156622000000001,10.886202,89.4100959,-2.91062664,-40.91493078
1.1300000000000001,113,-0.264,-0.946,0.092,-10.313244,4.6409598,8.59437,89.30123388000001,-2.9965703400000003,-40.86909414
1.1400000000000001,114,-0.243,-0.931,0.08199999999999999,-11.0580894,9.3392154,5.7868758000000025,89.1809127,-3.05386614,-40.77742086
1.1500000000000001,115,-0.23,-0.915,0.077,-10.7716104,13.6936962,2.6929026,89.07778026000004,-3.13408026,-40.62845178
1.1600000000000001,116,-0.226,-0.912,0.066,-9.453807000000001,17.6471064,-0.8021411999999999,88.97464782,-3.12835068,-40.4508348
1.17,117,-0.217,-0.91,0.065,-5.7868758000000025,24.7517856,-4.8701430000000006,88.89443370000002,-3.0825140400000004,-40.21019244
1.18,118,-0.192,-0.898,0.034,-0.9167328,30.1375908,-7.7922288,88.8657858,-3.0080295,-39.91225428
1.19,119,-0.152,-0.8809999999999999,0.035,6.875496000000001,35.5806918,-10.4851314,88.91735202,-2.90489706,-39.5627499
1.2,120,-0.095,-0.861,0.054000000000000006,14.7823164,38.8465524,-12.4331886,89.04340278,-2.79030546,-39.17313846
1.21,121,-0.052000000000000005,-0.846,0.08199999999999999,20.798375399999998,37.81522800000001,-13.2926256,89.23247891999998,-2.65852512,-38.80071576
1.22,122,-0.045,-0.8440000000000001,0.094,25.3820394,33.5753388,-13.178034,89.47312128,-2.53247436,-38.46840012
1.23,123,-0.051,-0.858,0.108,30.7105488,29.392745399999995,-11.9748222,89.76532986,-2.41788276,-38.17046196
1.24,124,-0.078,-0.88,0.19,36.096354,27.2728008,-10.599723,90.12056382,-2.3147503200000004,-37.89544212
1.25,125,-0.103,-0.919,0.217,36.096354,27.215505,-10.4278356,90.48725694,-2.22307704,-37.62042228
1.26,126,-0.114,-1.013,0.244,31.8564648,30.93973200000001,-11.0580894,90.79665426,-2.12567418,-37.31102496
1.27,127,0.087,-1.3090000000000002,-0.012,14.152062599999999,47.555514,-6.990087599999999,90.91697544,-2.07410796,-36.83546982
1.28,128,0.309,-1.892,-0.23,17.0168526,20.7410796,15.126091199999998,91.07740368,-2.2345362,-36.62920494
1.29,129,0.354,-2.169,-0.155,3.8388186,-12.605076,36.669312,91.12324032,-2.58977016,-36.76671485999999
1.3,130,0.129,-1.817,-0.037000000000000005,-10.7143146,-34.1482968,36.4401288,91.03729662,-2.93354496,-37.11048966
1.31,131,-0.179,-1.278,-0.046,0.6875496,-31.2835068,20.8556712,91.06594452,-3.12835068,-37.42561656
1.32,132,-0.363,-1.078,-0.01,5.5576926,-8.021412000000002,3.666931200000001,91.1289699,-3.1627281600000003,-37.50583068
1.33,133,-0.452,-0.979,-0.054000000000000006,0.22918320000000006,19.3659804,-12.7769634,91.11751074,-3.04240698,-37.31102496
1.34,134,-0.472,-0.916,-0.104,-0.8594370000000001,39.534102,-24.5798982,91.08313326,-2.81895336,-36.91568394
1.35,135,-0.409,-0.923,-0.075,-8.250595200000001,48.8160216,-31.51269000000001,90.96281208,-2.55539268,-36.41721048
1.36,136,-0.28800000000000003,-0.915,-0.139,-13.120738199999998,54.602897399999996,-31.8564648,90.79665426,-2.2631841,-35.87290038
1.37,137,-0.146,-0.88,-0.16,-11.1153852,62.853492599999996,-27.788463,90.65341476,-2.01108258,-35.24837616
1.3800000000000001,138,-0.011,-0.855,-0.132,-10.599723,65.2599162,-22.345362,90.51017526,-1.81627686,-34.60093362
1.3900000000000001,139,0.095,-0.8340000000000001,-0.116,-13.6364004,63.48374640000001,-16.615782,90.34401744,-1.67303736,-33.9764094
1.4000000000000001,140,0.201,-0.8490000000000001,-0.117,-17.761698000000006,59.64492779999999,-10.5424272,90.1262934,-1.56417534,-33.39199224
1.4100000000000001,141,0.269,-0.893,-0.147,-22.5745452,50.133825,-5.042030400000002,89.87992145999998,-1.52979786,-32.89924836
1.42,142,0.273,-0.946,-0.177,-23.7204612,41.19568020000001,-2.291832,89.62209035999999,-1.5183387000000002,-32.492448180000004
1.43,143,0.228,-1.0,-0.177,-22.86102420000001,32.31483119999999,-1.8907613999999997,89.37571842,-1.50687954,-32.177321279999994
1.44,144,0.151,-1.021,-0.16,-21.027558600000006,25.2674478,-3.8388186,89.1522648,-1.47250206,-31.93094934
1.45,145,0.063,-1.01,-0.154,-18.907614000000002,21.199446,-7.2192707999999985,88.93454076,-1.39228794,-31.72468446
1.46,146,-0.014,-0.975,-0.152,-16.959556799999998,19.480572,-10.6570188,88.7511942,-1.2891555000000001,-31.53560832
1.47,147,-0.068,-0.946,-0.131,-15.6417534,18.2773602,-12.7196676,88.58503637999998,-1.1688343199999998,-31.36372092
1.48,148,-0.08199999999999999,-0.928,-0.087,-15.527161800000002,19.1367972,-13.407217200000002,88.42460814,-1.03705398,-31.17464478
1.49,149,-0.043,-0.944,-0.068,-16.7876694,22.1161788,-12.261301199999998,88.24699116,-0.9167328000000001,-30.96265032
1.5,150,0.006999999999999999,-0.97,-0.073,-18.7357266,23.376686399999997,-10.255948199999999,88.04072628,-0.8078707799999998,-30.7391967
1.51,151,0.061,-0.989,-0.091,-21.3140376,24.350715,-7.7349330000000025,87.81727266,-0.72765666,-30.50428392
1.52,152,0.098,-1.0,-0.105,-22.7464326,24.5226024,-5.6722842,87.57663029999998,-0.6703608600000001,-30.263641560000003
1.53,153,0.121,-0.994,-0.104,-23.14750320000001,24.1788276,-4.3544808,87.33598794000002,-0.62452422,-30.02872878
1.54,154,0.114,-0.975,-0.101,-22.86102420000001,22.5745452,-3.666931200000001,87.10107516000002,-0.5844171599999999,-29.811004740000005
1.55,155,0.097,-0.953,-0.08800000000000001,-21.6578124,19.938938399999998,-3.8388186,86.86616238,-0.52712136,-29.627658180000005
1.56,156,0.062,-0.937,-0.054000000000000006,-19.6524594,17.303331600000003,-4.7555514,86.66562708000002,-0.47555514,-29.45577078
1.57,157,0.02,-0.932,-0.026,-17.0741484,13.980175199999998,-6.4744254,86.48801010000004,-0.40680018,-29.32399044
1.58,158,-0.008,-0.944,0.005,-14.2093584,11.8029348,-8.3651868,86.33904102,-0.32085648,-29.21512842000001
1.59,159,-0.035,-0.969,0.016,-12.5477802,11.6310474,-10.6570188,86.21299026,-0.21199446,-29.1062664
1.6,160,-0.048,-0.976,0.016,-11.172681,13.980175199999998,-11.917526400000002,86.10412824,-0.10313244,-28.974486060000004
1.61,161,-0.047,-0.969,0.034,-8.9381448,16.8449652,-11.2872726,86.01245496,0.01145916,-28.81405782
1.62,162,-0.033,-0.962,0.042,-6.3598338,19.0222056,-9.740286,85.9437,0.11459160000000002,-28.63644084
1.6300000000000001,163,-0.004,-0.955,0.042,-4.5263682,21.0848544,-8.193299399999999,85.89786336,0.20626488,-28.43017596
1.6400000000000001,164,0.037000000000000005,-0.944,0.041,-2.578311,21.829699800000004,-6.9327918,85.86921545999998,0.28647900000000004,-28.22391108
1.6500000000000001,165,0.056,-0.939,0.05,-0.286479,21.0848544,-6.130650599999999,85.8864042,0.3724227000000001,-28.02337578
1.6600000000000001,166,0.061,-0.943,0.051,0.6875496,18.6784308,-5.9014674000000005,85.89213378,0.44117766,-27.84002922
1.6700000000000002,167,0.071,-0.944,0.032,1.6042823999999998,16.329303,-5.72958,85.90932252,0.5042030399999999,-27.68533056
1.68,168,0.08800000000000001,-0.931,0.028,3.6096354,13.407217200000002,-5.3285094000000015,85.9437,0.56149884,-27.55355022
1.69,169,0.1,-0.925,0.044,6.8182002000000015,8.5370742,-5.0993262,86.01245496,0.61879464,-27.473336100000004
1.7,170,0.106,-0.924,0.061,9.9121734,2.6356068,-5.042030400000002,86.14996488,0.7161975,-27.461876940000003
1.71,171,0.116,-0.925,0.07400000000000001,12.1467096,-3.4950437999999995,-4.7555514,86.27601564,0.76203414,-27.496254420000003
1.72,172,0.132,-0.92,0.087,14.5531332,-9.224623800000002,-3.8961144,86.42498472,0.8021412000000001,-27.593657279999995
1.73,173,0.14300000000000002,-0.911,0.101,18.621135,-14.667724800000002,-2.1772404,86.61406086000002,0.8193299399999999,-27.73689678
1.74,174,0.16,-0.899,0.128,22.631841,-19.308684600000007,-0.11459160000000003,86.84324405999998,0.8136003599999999,-27.92597292
1.75,175,0.163,-0.897,0.155,25.9549974,-23.3193906,1.6615782,87.12972306,0.8193299399999999,-28.1608857
1.76,176,0.162,-0.902,0.18,28.762491600000004,-27.444688199999998,3.8388186,87.42193164,0.7792228800000001,-28.42444638
1.77,177,0.14800000000000002,-0.91,0.19,30.8824362,-32.6013102,6.760904399999999,87.73705853999998,0.7104679199999999,-28.73957328
1.78,178,0.14400000000000002,-0.921,0.203,33.002380800000005,-37.2995658,9.9121734,88.06937418,0.61306506,-29.1062664
1.79,179,0.15,-0.943,0.226,34.37748,-40.33624320000001,12.5477802,88.42460814,0.4870143000000001,-29.49587784
1.8,180,0.153,-0.99,0.234,34.37748,-42.685371,14.667724800000002,88.79130126,0.36096354,-29.91413718
1.81,181,0.151,-1.033,0.214,32.257535399999995,-44.0031744,16.615782,89.12361690000002,0.20053530000000008,-30.34385568
1.82,182,0.134,-1.107,0.149,26.9863218,-42.398892,17.246035799999998,89.40436632,0.04010706,-30.75638544000001
1.83,183,0.055,-1.233,0.025,18.3919518,-36.1536498,13.8655836,89.59344246,-0.0859437,-31.111619399999995
1.84,184,-0.057,-1.391,-0.102,10.599723,-28.074942,8.7089616,89.70803406,-0.16615782,-31.38663924
1.85,185,-0.156,-1.474,-0.241,5.844171599999999,-25.0955604,6.016058999999999,89.76532986,-0.22345362,-31.63301118
1.86,186,-0.21,-1.467,-0.307,5.5003968,-23.4339822,6.5317212,89.82262566,-0.28074942,-31.86792396
1.87,187,-0.226,-1.378,-0.322,3.666931200000001,-20.3973048,9.1100322,89.86273272,-0.36669312,-32.068459260000004
1.8800000000000001,188,-0.201,-1.279,-0.329,4.7555514,-15.527161800000002,11.2872726,89.91429894,-0.47555514,-32.22315792
1.8900000000000001,189,-0.136,-1.199,-0.276,6.990087599999999,-12.6623718,15.2979786,89.98878348,-0.62452422,-32.3434791
1.9000000000000001,190,-0.07200000000000001,-1.131,-0.208,8.8235532,-16.042824000000003,20.626488,90.06326802,-0.8250595199999999,-32.50390734
1.9100000000000001,191,-0.011,-1.079,-0.146,8.078707799999998,-20.3973048,23.835052800000003,90.14921172,-1.0599723,-32.70444264
1.9200000000000002,192,0.051,-1.038,-0.107,7.333862400000001,-23.376686399999997,23.6631654,90.23515542,-1.28342592,-32.93935542
1.93,193,0.098,-1.018,-0.122,6.3598338,-25.4393352,19.480572,90.30963996,-1.47250206,-33.19145694
1.94,194,0.104,-1.02,-0.155,3.8388186,-25.0382646,12.7769634,90.3554766,-1.5870936600000003,-33.43782888
1.95,195,0.092,-1.038,-0.196,1.432395,-23.032911600000002,6.2452422,90.3268287,-1.61001198,-33.67847124
1.96,196,0.032,-1.056,-0.209,0.5156622000000001,-23.0902074,1.6615782,90.34401744,-1.6157415599999996,-33.90765444
1.97,197,-0.055,-1.043,-0.184,-0.057295800000000015,-21.9442914,-0.572958,90.34974702,-1.6042824000000002,-34.12537848
1.98,198,-0.14300000000000002,-1.026,-0.16,-0.9167328,-18.9649098,-0.5156622000000001,90.34974702,-1.59282324,-34.30872504
1.99,199,-0.198,-0.997,-0.155,-0.9740286,-15.6417534,0.6302538000000001,90.34974702,-1.59282324,-34.4634237
2.0,200,-0.219,-0.965,-0.127,0.572958,-10.9434978,2.4064236,90.28672164,-1.73606274,-34.53790823999999
2.01,201,-0.191,-0.944,-0.1,2.6356068,-5.844171599999999,4.4117766,90.31536954,-1.7761698,-34.59520404
2.02,202,-0.147,-0.945,-0.08,4.4117766,-2.9220857999999996,6.589017,90.36120618,-1.83919518,-34.62958152
2.03,203,-0.1,-0.96,-0.056,5.3858052,-1.145916,8.3651868,90.41850198,-1.92513888,-34.64104068
2.04,204,-0.076,-0.974,-0.033,5.443101,1.3750992,8.7662574,90.4700682,-2.01108258,-34.62385194
2.05,205,-0.073,-0.977,-0.027000000000000003,4.583664,4.0680017999999984,7.7349330000000025,90.49298652,-2.10848544,-34.5780153
2.0599999999999996,206,-0.08199999999999999,-0.979,-0.027000000000000003,3.6096354,5.6149884000000005,6.9327918,90.527364,-2.1772404,-34.52644908
2.07,207,-0.102,-0.973,-0.021,3.0366774,6.130650599999999,6.6463128000000005,90.5560119,-2.24599536,-34.4634237
2.0799999999999996,208,-0.107,-0.969,-0.021,1.8334656000000005,6.6463128000000005,7.0473834,90.57320064,-2.3204799,-34.40039832
2.09,209,-0.106,-0.963,-0.022,0.5156622000000001,7.333862400000001,6.990087599999999,90.57320064,-2.38923486,-34.32591377999999
2.0999999999999996,210,-0.106,-0.96,-0.044,-0.5156622000000001,7.9641161999999985,6.8182002000000015,90.527364,-2.4923673,-34.23997008
2.11,211,-0.093,-0.958,-0.055,-0.6302538000000001,7.6776372,6.6463128000000005,90.51590484,-2.5611222600000003,-34.16548554000001
2.1199999999999997,212,-0.059,-0.952,-0.056,-0.6302538000000001,6.302537999999998,6.589017,90.50444568,-2.62987722,-34.10246016
2.13,213,-0.036000000000000004,-0.943,-0.033,-1.3178034,4.1825934,6.4744254,90.49298652,-2.69863218,-34.0623531
2.1399999999999997,214,-0.021,-0.939,-0.035,-3.2085648,2.3491278,6.302537999999998,90.45860904,-2.76165756,-34.03943478
2.15,215,-0.013,-0.936,-0.044,-4.6982556,-0.057295800000000015,6.0733548,90.37266534,-2.80176462,-34.04516436
2.1599999999999997,216,-0.021,-0.933,-0.042,-5.042030400000002,-2.7501984,5.9014674000000005,90.3268287,-2.85906042,-34.07381226
2.17,217,-0.032,-0.941,-0.031,-4.6982556,-5.3285094000000015,6.016058999999999,90.28099206,-2.91635622,-34.12537848
2.1799999999999997,218,-0.054000000000000006,-0.954,-0.023,-5.3285094000000015,-7.2192707999999985,6.417129599999999,90.22942584,-2.9793816000000004,-34.19986302
2.19,219,-0.07400000000000001,-0.965,-0.022,-6.1879464,-8.4224826,6.875496000000001,90.17213004,-3.04813656,-34.28580672
2.1999999999999997,220,-0.098,-0.962,-0.008,-5.5576926,-9.3392154,7.1046792000000005,90.12056382,-3.1398098400000003,-34.37175042
2.21,221,-0.125,-0.972,0.036000000000000004,-5.5003968,-8.4224826,7.161975,90.06899759999997,-3.2085648000000004,-34.45769412
2.2199999999999998,222,-0.131,-0.982,0.05,-7.5630456000000015,-5.5576926,7.333862400000001,89.99451306,-3.27731976,-34.51498992
2.23,223,-0.131,-0.993,0.06,-9.8548776,-3.151269,7.5057497999999985,89.8971102,-3.3518043,-34.54363782
2.2399999999999998,224,-0.121,-1.003,0.062,-12.5477802,-0.8021411999999999,8.250595200000001,89.77105944,-3.4377480000000005,-34.555096979999995
2.25,225,-0.11,-0.996,0.046,-13.8655836,-0.057295800000000015,8.7089616,89.6392791,-3.54088044,-34.555096979999995
2.26,226,-0.099,-0.979,0.043,-14.2093584,-1.6615782,8.7089616,89.49603959999996,-3.62682414,-34.57228572
2.27,227,-0.1,-0.973,0.044,-15.2979786,-3.3804522000000006,8.193299399999999,89.34134094,-3.71276784,-34.60666320000001
2.28,228,-0.117,-0.962,0.045,-16.673077799999998,-4.010706000000001,6.8182002000000015,89.17518312,-3.7815227999999994,-34.64677026
2.29,229,-0.12,-0.941,0.044,-17.8762896,-3.7815227999999994,5.2712136,88.99756613999998,-3.83308902,-34.68687732
2.3,230,-0.127,-0.923,0.051,-17.8762896,-3.2085648,3.2658606,88.83140832000002,-3.89038482,-34.71552522
2.31,231,-0.139,-0.92,0.057,-17.475219,-1.432395,0.9740286,88.65952092,-3.90184398,-34.73271396
2.32,232,-0.156,-0.926,0.06,-16.902261,2.2345362,-0.8594370000000001,88.48190394,-3.89038482,-34.70979564
2.3299999999999996,233,-0.163,-0.912,0.044,-14.667724800000002,6.2452422,-2.9220857999999996,88.32720528,-3.86173692,-34.652499840000004
2.34,234,-0.156,-0.8909999999999999,0.062,-10.0840608,10.6570188,-4.8128472,88.21834326000004,-3.81590028,-34.5493674
2.3499999999999996,235,-0.138,-0.868,0.108,-4.4690724,15.183387000000002,-6.1879464,88.19542494,-3.77579322,-34.39466874
2.36,236,-0.136,-0.866,0.153,-0.6302538000000001,19.308684600000007,-7.161975,88.17823620000001,-3.70703826,-34.2055926
2.3699999999999997,237,-0.138,-0.884,0.135,2.1199446,22.9756158,-7.5630456000000015,88.17823620000001,-3.62682414,-33.9764094
2.38,238,-0.146,-0.897,0.095,5.3285094000000015,24.637194,-7.9641161999999985,88.21834326000004,-3.54661002,-33.73576704
2.3899999999999997,239,-0.151,-0.899,0.094,10.4278356,26.2414764,-9.0527364,88.30428696,-3.45493674,-33.477935939999995
2.4,240,-0.14400000000000002,-0.887,0.124,14.8396122,28.4187168,-10.4851314,88.45325604000001,-3.36326346,-33.19145694
2.4099999999999997,241,-0.127,-0.872,0.172,17.303331600000003,30.9970278,-11.5737516,88.60795470000002,-3.2486718599999995,-32.8877892
2.42,242,-0.106,-0.879,0.182,18.162768600000003,31.111619399999995,-11.5737516,88.76838294000002,-3.13408026,-32.57839188
2.4299999999999997,243,-0.092,-0.92,0.197,18.9649098,28.8770832,-10.9434978,88.94599991999998,-3.02521824,-32.29191288
2.44,244,-0.085,-0.98,0.202,18.1054728,26.69984280000001,-11.0580894,89.11215774000001,-2.91635622,-32.0283522
2.4499999999999997,245,-0.102,-1.017,0.21,16.902261,26.2414764,-13.2926256,89.28977472,-2.79603504,-31.76479152
2.46,246,-0.128,-1.025,0.204,15.527161800000002,27.3300966,-16.673077799999998,89.43301421999998,-2.62987722,-31.49550126
2.4699999999999998,247,-0.14,-1.05,0.174,14.2093584,29.392745399999995,-19.480572,89.55906498,-2.44080108,-31.20329268
2.48,248,-0.122,-1.096,0.11,11.4018642,31.79916900000001,-20.511896399999998,89.65646783999998,-2.24599536,-30.88816578
2.4899999999999998,249,-0.077,-1.16,0.043,7.333862400000001,33.0596766,-20.2827132,89.71376364,-2.05118964,-30.56157972
2.5,250,-0.036000000000000004,-1.203,-0.023,5.5003968,30.7105488,-19.0222056,89.74814112,-1.8621135,-30.25791198
2.51,251,-0.002,-1.208,-0.038,3.8961144,29.335449600000004,-17.8762896,89.77678902,-1.6902260999999998,-29.9657034
2.52,252,0.047,-1.169,-0.08800000000000001,1.4896908000000002,32.658606,-16.959556799999998,89.77678902,-1.52979786,-29.64484692000001
2.53,253,0.099,-1.168,-0.133,1.4896908000000002,38.2162986,-14.4385416,89.77678902,-1.39801752,-29.26669464
2.54,254,0.133,-1.208,-0.159,1.7188740000000002,38.61736920000001,-10.255948199999999,89.7825186,-1.30634424,-28.88281278
2.55,255,0.127,-1.242,-0.201,1.3178034,39.0757356,-5.7868758000000025,89.76532986,-1.24331886,-28.49893092000001
2.56,256,0.078,-1.255,-0.194,-1.0313244,34.950438,-2.8074942000000003,89.74241154,-1.22040054,-28.15515612
2.57,257,0.027000000000000003,-1.235,-0.214,-3.4950437999999995,29.621928600000004,-1.7761698,89.6965749,-1.20894138,-27.862947540000004
2.5799999999999996,258,-0.022,-1.185,-0.236,-4.8701430000000006,29.9084076,-2.0053530000000004,89.6392791,-1.19748222,-27.56500938
2.59,259,-0.084,-1.142,-0.235,-5.5576926,32.7731976,-2.9220857999999996,89.57052414,-1.1745638999999999,-27.2441529
2.5999999999999996,260,-0.161,-1.081,-0.241,-7.6203414,35.4088044,-4.2398892,89.44447338,-1.1688343199999998,-26.88318936
2.61,261,-0.204,-1.004,-0.23,-8.307891,39.247623,-4.6409598,89.34707052,-1.12872726,-26.4993075
2.6199999999999997,262,-0.2,-0.937,-0.204,-8.7662574,42.5134836,-4.1825934,89.24393807999998,-1.09434978,-26.08104816
2.63,263,-0.15,-0.92,-0.168,-8.479778399999999,43.7166954,-3.4950437999999995,89.14653522,-1.06570188,-25.64560008
2.6399999999999997,264,-0.073,-0.942,-0.14400000000000002,-8.7662574,44.06047020000001,-2.9793816000000004,89.04340278,-1.04278356,-25.21588158
2.65,265,-0.01,-0.98,-0.118,-8.5370742,42.28430039999999,-2.5210152000000003,88.9230816,-1.01413566,-24.79762224000001
2.6599999999999997,266,0.032,-1.011,-0.124,-8.59437,38.67466500000001,-2.291832,88.82567874,-0.9969469199999998,-24.41374038
2.67,267,0.063,-1.019,-0.128,-8.7662574,34.5493674,-2.6356068,88.7225463,-0.9740286,-24.07569516
2.6799999999999997,268,0.077,-1.04,-0.117,-8.880849000000003,29.8511118,-4.4690724,88.62514344,-0.92819196,-23.78348658
2.69,269,0.054000000000000006,-1.041,-0.096,-10.1986524,25.210152,-7.5630456000000015,88.51628142,-0.8537074199999999,-23.53711464
2.6999999999999997,270,0.031,-1.031,-0.1,-10.5424272,23.0902074,-10.4851314,88.38450107999998,-0.7448454000000001,-23.31366102
2.71,271,0.027000000000000003,-1.021,-0.101,-9.568398599999998,21.829699800000004,-12.834259199999998,88.28136864,-0.61879464,-23.10166656
2.7199999999999998,272,0.025,-1.001,-0.08,-8.8235532,20.7410796,-14.381245800000002,88.18396578000002,-0.47555514,-22.90113126
2.73,273,0.012,-0.991,-0.067,-9.0527364,21.0848544,-15.5844576,88.08656292,-0.32085648,-22.69486638
2.7399999999999998,274,0.003,-0.978,-0.056,-9.5111028,24.064235999999998,-16.7876694,87.98916005999996,-0.14896908,-22.46568318
2.75,275,0.0,-0.977,-0.047,-9.568398599999998,27.3873924,-17.8189938,87.88029803999999,0.02291832,-22.2021225
2.76,276,0.008,-0.97,-0.04,-9.740286,29.1062664,-17.9908812,87.77716559999998,0.20626488,-21.92137308
2.77,277,0.027000000000000003,-0.953,-0.036000000000000004,-9.6829902,28.4187168,-16.7876694,87.67976274,0.3724227000000001,-21.64635324
2.78,278,0.054000000000000006,-0.938,-0.041,-10.1986524,26.8717302,-15.6990492,87.57090072000004,0.53285094,-21.38852214
2.79,279,0.083,-0.932,-0.047,-10.7716104,25.840405800000006,-15.6417534,87.46203870000002,0.69327918,-21.1421502
2.8,280,0.109,-0.934,-0.039,-11.172681,24.2361234,-16.1001198,87.34171752,0.87089616,-20.912967000000002
2.81,281,0.111,-0.936,-0.046,-12.4331886,22.1161788,-16.4438946,87.21566676,1.03705398,-20.70097254
2.82,282,0.109,-0.932,-0.052000000000000005,-13.349921400000001,20.5691922,-16.501190400000002,87.08388642,1.20894138,-20.50616682
2.8299999999999996,283,0.113,-0.94,-0.048,-13.9228794,19.308684600000007,-16.4438946,86.94064691999998,1.3750992,-20.32854984
2.84,284,0.109,-0.949,-0.039,-14.2093584,17.0741484,-15.813640800000002,86.80313699999998,1.53552744,-20.168121600000006
2.8499999999999996,285,0.115,-0.949,-0.03,-15.126091199999998,13.407217200000002,-14.896907999999998,86.64843834,1.7074148399999998,-20.04780042
2.86,286,0.117,-0.95,-0.024,-15.985528200000001,10.3705398,-14.152062599999999,86.48801010000004,1.85065434,-19.95612714
2.8699999999999997,287,0.11,-0.952,-0.032,-16.1001198,8.7089616,-13.407217200000002,86.32758186,1.98243468,-19.8816426
2.88,288,0.09,-0.955,-0.024,-14.667724800000002,8.250595200000001,-12.7769634,86.17861278000002,2.11421502,-19.80715806
2.8899999999999997,289,0.063,-0.959,-0.01,-13.0061466,8.078707799999998,-12.1467096,86.04683244,2.2345362,-19.738403100000006
2.9,290,0.044,-0.956,0.002,-11.9748222,7.7922288,-11.0580894,85.9437,2.3491277999999998,-19.66964814
2.9099999999999997,291,0.042,-0.956,0.011,-11.0007936,8.193299399999999,-9.9121734,85.82910840000002,2.45226024,-19.595163600000006
2.92,292,0.045,-0.962,0.018000000000000002,-10.5424272,8.7089616,-8.880849000000003,85.72597596,2.54393352,-19.51494948
2.9299999999999997,293,0.045,-0.967,0.034,-10.1986524,8.59437,-7.5630456000000015,85.62284352,2.61841806,-19.44046494
2.94,294,0.046,-0.968,0.039,-10.0840608,7.7349330000000025,-6.417129599999999,85.52544065999999,2.68717302,-19.365980399999998
2.9499999999999997,295,0.058,-0.964,0.04,-9.6256944,8.021412000000002,-5.6722842,85.46241528,2.75592798,-19.29722544
2.96,296,0.08199999999999999,-0.97,0.046,-9.167328,8.9381448,-5.72958,85.370742,2.81895336,-19.21128174
2.9699999999999998,297,0.102,-0.979,0.038,-10.0840608,9.453807000000001,-5.844171599999999,85.27333913999998,2.88197874,-19.12533804
2.98,298,0.126,-0.981,0.025,-11.172681,8.8235532,-5.5576926,85.15874754000002,2.93927454,-19.04512392
2.9899999999999998,299,0.138,-0.98,0.019,-11.8602306,6.875496000000001,-4.8701430000000006,85.04415594,2.99084076,-18.982098540000006
3.0,300,0.134,-0.971,0.012,-12.834259199999998,3.5523396000000003,-3.8388186,84.9410235,3.07678446,-18.95918022
3.01,301,0.12,-0.97,-0.008,-13.6364004,-0.11459160000000003,-3.0939732,84.80351358,3.1054323600000004,-18.9649098
3.02,302,0.101,-0.988,-0.009000000000000001,-13.8082878,-1.7761698,-3.6096354,84.66027408,3.1398098400000003,-18.98782812
3.03,303,0.08800000000000001,-0.981,-0.002,-14.896907999999998,-3.8961144,-3.6096354,84.51130500000002,3.16845774,-19.03366476
3.04,304,0.076,-0.96,-0.003,-15.870936600000002,-6.016058999999999,-3.0366774,84.34514718,3.19710564,-19.09669014
3.05,305,0.068,-0.96,-0.023,-17.4179232,-8.307891,-2.4064236,84.17325978,3.22002396,-19.18263384
3.06,306,0.053,-0.987,-0.044,-18.449247600000003,-10.1413566,-2.3491278,83.98418364,3.2314831199999987,-19.29149586
3.07,307,0.041,-1.027,-0.047,-18.9649098,-10.3705398,-3.0366774,83.78364833999998,3.25440144,-19.3946283
3.08,308,0.041,-1.036,-0.049,-20.798375399999998,-9.2819196,-3.6096354,83.57165388,3.27731976,-19.49776074
3.09,309,0.053,-1.008,-0.045,-23.3193906,-8.078707799999998,-3.6096354,83.33101152,3.3059676599999994,-19.58370444
3.0999999999999996,310,0.065,-0.99,-0.029,-27.903054600000004,-7.7349330000000025,-2.9793816000000004,83.05599168,3.32888598,-19.66391856
3.11,311,0.083,-0.96,-0.029,-32.658606,-8.021412000000002,-1.7761698,82.72367604,3.34034514,-19.74986226
3.1199999999999997,312,0.085,-0.946,-0.018000000000000002,-33.8618178,-10.255948199999999,-0.22918320000000006,82.37417166,3.32888598,-19.8529947
3.13,313,0.062,-0.932,-0.027000000000000003,-35.7525792,-13.349921400000001,1.7188740000000002,82.00174896,3.2945085,-19.99050462
3.1399999999999997,314,0.036000000000000004,-0.902,0.009000000000000001,-37.41415739999999,-15.4125702,3.4950437999999995,81.6178671,3.2372127,-20.139473700000003
3.15,315,0.004,-0.8859999999999999,0.022,-40.10706,-15.2979786,3.9534102,81.21679650000002,3.1627281600000003,-20.2827132
3.1599999999999997,316,-0.059,-0.883,-0.031,-41.8832298,-9.6256944,3.9534102,80.78707800000002,3.11116194,-20.38011606
3.17,317,-0.136,-0.901,-0.029,-44.404245,0.8021411999999999,3.0366774,80.34017076,3.07678446,-20.3686569
3.1799999999999997,318,-0.213,-0.904,0.05,-46.4668938,11.172681,1.145916,79.8703452,3.07678446,-20.25979488
3.19,319,-0.268,-0.8640000000000001,0.031,-48.6441342,24.5226024,-0.6875496,79.38906048,3.11689152,-20.03061168
3.1999999999999997,320,-0.255,-0.812,-0.001,-46.8679644,36.2682414,-1.6615782,78.93642365999997,3.15699858,-19.67537772
3.21,321,-0.202,-0.765,0.044,-40.8519054,40.2216516,-2.4064236,78.53535306,3.24294228,-19.29149586
3.2199999999999998,322,-0.12,-0.741,0.095,-36.955791,39.47680620000001,-3.0939732,78.1801191,3.33461556,-18.91334358
3.23,323,0.022,-0.731,0.033,-36.898495200000006,38.4454818,-2.6356068,77.81915556,3.42628884,-18.54665046
3.2399999999999998,324,0.133,-0.735,0.045,-33.8618178,37.41415739999999,-0.8594370000000001,77.4925695,3.50077338,-18.191416500000006
3.25,325,0.151,-0.721,0.16899999999999998,-25.78311,34.8358464,0.3437748,77.28630462,3.57525792,-17.85337128
3.26,326,0.12,-0.6890000000000001,0.214,-22.91832,30.8251404,1.2605076000000002,77.06858058,3.62109456,-17.55543312
3.27,327,0.062,-0.68,0.209,-22.7464326,26.1268848,3.3231564,76.85085654000002,3.6382833,-17.29760202
3.28,328,0.017,-0.691,0.201,-22.1161788,19.480572,5.958763200000001,76.6331325,3.61536498,-17.09706672
3.29,329,-0.003,-0.679,0.28600000000000003,-17.8762896,15.0114996,6.8182002000000015,76.46124510000001,3.5809875,-16.93663848
3.3,330,0.02,-0.6629999999999999,0.242,-17.7044022,13.120738199999998,5.72958,76.32946476,3.5523396000000003,-16.79339898
3.31,331,0.047,-0.623,0.21600000000000005,-14.4385416,11.229976800000001,4.1825934,76.18622526,3.52942128,-16.678807380000002
3.32,332,0.021,-0.609,0.232,-13.0061466,8.7089616,1.6615782,76.0601745,3.52942128,-16.59286368
3.33,333,-0.021,-0.618,0.139,-15.2406828,10.7143146,-2.4064236,75.91120542,3.57525792,-16.495460819999998
3.34,334,-0.056,-0.606,0.048,-16.673077799999998,13.5791046,-7.2765666,75.74504759999998,3.67266078,-16.38086922
3.3499999999999996,335,-0.09,-0.584,0.005,-16.2147114,18.907614000000002,-12.7196676,75.60180809999999,3.82162986,-16.22617056
3.36,336,-0.107,-0.614,-0.02,-17.8762896,25.9549974,-16.902261,75.42992070000003,4.0393539,-16.01990568
3.3699999999999997,337,-0.13,-0.6940000000000001,-0.109,-24.637194,33.2888598,-21.4286292,75.19500792,4.320103319999999,-15.756345
3.38,338,-0.18,-0.784,-0.25,-34.5493674,42.112413,-29.220858000000003,74.86269228,4.69252602,-15.42402936
3.3899999999999997,339,-0.224,-0.877,-0.393,-41.825934,51.4516284,-36.6120162,74.46162168000002,5.16235158,-15.028688340000002
3.4,340,-0.21,-0.92,-0.503,-44.2896534,60.2178858,-40.10706,74.03190318,5.66655462,-14.558862779999998
3.4099999999999997,341,-0.11,-0.805,-0.472,-36.32553720000001,69.8435802,-37.5860448,73.71104670000003,6.19367598,-13.99163436
3.42,342,0.029,-0.6809999999999999,-0.363,-24.2361234,70.9894962,-29.0489706,73.52197056,6.6463128,-13.390028460000002
3.4299999999999997,343,0.138,-0.677,-0.187,-15.527161800000002,64.11400019999999,-17.3606274,73.4245677,6.972898860000001,-12.82280004
3.44,344,0.16699999999999998,-0.77,0.008,-16.902261,59.4730404,-7.6776372,73.3099761,7.19635248,-12.27276036
3.4499999999999997,345,0.155,-0.77,0.124,-20.3973048,56.149884,-3.3804522000000006,73.1953845,7.37969904,-11.745639
3.46,346,0.098,-0.648,0.147,-24.7517856,52.0818822,-4.297185,73.00057878,7.55731602,-11.2586247
3.4699999999999998,347,0.055,-0.458,0.193,-25.553926800000006,51.4516284,-6.130650599999999,72.80004348,7.746392160000001,-10.78306956
3.48,348,-0.018000000000000002,-0.358,0.212,-26.5852512,43.6021038,-7.1046792000000005,72.57658986,7.929738719999999,-10.38772854
3.4899999999999998,349,-0.035,-0.364,0.194,-30.5386614,32.945085,-8.7662574,72.30157002,8.10162612,-10.10124954
3.5,350,0.078,-0.435,0.194,-32.6013102,24.4080108,-13.0061466,72.02082060000002,8.29643184,-9.9121734
3.51,351,0.175,-0.5820000000000001,0.18,-37.7006364,18.6784308,-21.5432208,71.65412748,8.54853336,-9.80331138
3.52,352,0.173,-0.7,0.09,-48.987909,21.7151082,-30.5386614,71.16711318,8.89230816,-9.69444936
3.53,353,0.091,-0.8440000000000001,-0.024,-63.7129296,31.5699858,-37.0130868,70.54258896,9.32775624,-9.51683238
3.54,354,-0.044,-1.079,-0.209,-78.20876700000002,35.6379876,-35.0077338,69.78055481999999,9.75747474,-9.30483792
3.55,355,-0.155,-1.369,-0.384,-94.8818448,32.486718599999996,-32.544014399999995,68.84663328,10.1413566,-9.11576178
3.56,356,-0.184,-1.589,-0.388,-102.0438198,28.0176462,-32.658606,67.83249762,10.53096804,-8.97825186
3.57,357,-0.133,-1.723,-0.408,-115.2791496,29.5646328,-40.6227222,66.67512246,10.99506402,-8.86938984
3.58,358,-0.102,-1.707,-0.435,-128.9728458,43.20103320000001,-58.613603399999995,65.39169654,11.67115446,-8.714691179999999
3.59,359,-0.129,-1.46,-0.564,-143.58327480000003,69.38521379999999,-76.7190762,63.98794944,12.62226474,-8.41675302
3.5999999999999996,360,-0.248,-1.111,-0.6990000000000001,-151.26091200000005,94.53806999999999,-90.24088499999999,62.53263611999999,13.79109906,-7.96984578
3.61,361,-0.248,-0.868,-0.7509999999999999,-160.37094419999997,113.7894588,-98.7206634,61.02575657999999,15.13755036,-7.41407652
3.6199999999999997,362,-0.034,-0.647,-0.7559999999999999,-177.61698,127.48315500000001,-102.1011156,59.37563754,16.59286368,-6.79528188
3.63,363,0.314,-0.44,-0.8190000000000001,-196.1808192,126.7383096,-101.6427492,57.53644236,18.05390658,-6.2165943
3.6399999999999997,364,0.5920000000000001,-0.339,-0.8370000000000001,-214.286292,109.148499,-99.75198780000001,55.46806398,19.4232762,-5.83844202
3.65,365,0.787,-0.237,-0.598,-226.43300159999998,82.39136040000002,-99.0644382,53.18769113999999,20.66659506,-5.74103916
3.6599999999999997,366,0.84,-0.27,-0.28800000000000003,-222.8233662,62.96808420000001,-102.7313694,50.86148166,21.81251106,-5.88427866
3.67,367,0.7509999999999999,-0.328,0.055,-221.448267,42.4561878,-108.05987879999999,48.455058060000006,22.8610242,-6.285349259999999
3.6799999999999997,368,0.667,-0.345,0.248,-224.7141276,30.9970278,-111.9559932,45.93977244,23.85224154,-6.86403684
3.69,369,0.565,-0.32,0.28300000000000003,-220.07316780000002,22.058883,-114.13323359999998,43.40729808,24.768974340000003,-7.58023434
3.6999999999999997,370,0.407,-0.255,0.413,-211.8225726,11.4018642,-116.94072779999999,40.90347162,25.62268176,-8.43967134
3.71,371,0.34700000000000003,-0.126,0.516,-206.7232464,2.6356068,-123.47244899999998,38.34807894,26.39617506,-9.47672532
3.7199999999999998,372,0.265,-0.006,0.516,-200.7644832,-1.0313244,-135.9056376,35.76403836,27.17539794,-10.6856667
3.73,373,0.107,0.025,0.434,-206.2075842,-11.5737516,-152.06305319999996,32.98519206,27.908784180000005,-12.16389834
3.7399999999999998,374,-0.063,-0.012,0.35100000000000003,-209.8172196,-24.5226024,-156.93319619999997,30.07456542,28.49320134,-13.81974696
3.75,375,0.047,-0.086,0.182,-212.0517558,-32.7159018,-152.12034899999998,27.11810214,28.92291984,-15.509973059999998
3.76,376,0.39,-0.009000000000000001,-0.139,-212.2236432,-53.11320660000001,-139.3433856,24.1501797,29.02605228,-17.20019916
3.77,377,0.833,0.27,-0.405,-207.2962044,-88.0063488,-122.1546456,21.245282640000006,28.6765479,-18.878966100000003
3.78,378,1.088,0.708,-0.644,-210.5047692,-107.4869208,-98.262297,18.4205997,27.99472788,-20.35146816
3.79,379,0.858,1.063,-1.28,-220.58883,-117.742869,-76.48989300000002,15.63029424,27.08372466,-21.57759828
3.8,380,0.96,0.955,-2.6710000000000003,-233.76686400000003,-146.04699419999997,-64.51507079999999,12.7769634,25.82321706,-22.69486638
3.81,381,1.58,0.794,-3.856,-250.4399418,-192.800367,-80.50059900000002,9.70590852,24.0928839,-24.00694020000001
3.82,382,3.47,1.962,-3.996,-225.5735646,-283.1558436,-136.077525,6.69787902,21.49738416,-25.94926782
3.83,383,2.971,2.984,-3.996,-93.2202666,-276.2803476,-95.9131692,5.30559108,18.878966100000003,-27.33582618
3.84,384,1.508,1.717,-3.996,-11.172681,-121.0660254,-8.8235532,5.1279740999999985,17.69867262,-27.57646854
3.8499999999999996,385,1.883,0.488,-3.996,56.4936588,-63.82752120000001,50.3630082,5.844171599999999,17.02831176,-27.14102046
3.86,386,1.993,-0.342,-3.556,9.740286,-70.1300592,77.40662579999999,6.15356892,16.26054804,-26.43628212
3.8699999999999997,387,0.919,-0.258,-2.09,-20.798375399999998,-44.34694920000001,87.31879920000002,6.18221682,15.7276971,-25.59976344
3.88,388,-0.03,-0.135,-1.533,-31.111619399999995,-27.215505,83.7091638,6.09054354,15.36673356,-24.7804335
3.8899999999999997,389,0.015,-0.063,-1.046,-36.4401288,-34.8358464,75.343977,5.9129265600000025,14.937015060000002,-24.05277684
3.9,390,0.3,0.009000000000000001,-0.65,-32.257535399999995,-62.6243094,58.15523699999999,5.71812084,14.27811336,-23.54284422
3.9099999999999997,391,0.35600000000000004,0.221,-0.378,-25.0382646,-84.797784,31.627281600000003,5.52331512,13.4072172,-23.33084976
3.92,392,0.14800000000000002,0.32,-0.304,-27.903054600000004,-97.3455642,10.7716104,5.25402486,12.438918179999998,-23.336579340000004
3.9299999999999997,393,-0.078,0.336,-0.299,-29.621928600000004,-95.7985776,-3.8961144,4.93316838,11.49926706,-23.491278
3.94,394,-0.16,0.344,-0.373,-21.9442914,-87.089616,-11.688343199999998,4.68106686,10.65128922,-23.70327246
3.9499999999999997,395,-0.203,0.349,-0.289,-13.6936962,-77.6931048,-13.521808800000002,4.48626114,9.87779592,-23.9209965
3.96,396,-0.048,0.307,-0.218,-8.7662574,-66.3485364,-14.037471,4.37166954,9.23608296,-24.13299096
3.9699999999999998,397,0.101,0.223,-0.21600000000000005,-1.7761698,-60.905435399999995,-15.756345000000001,4.325832900000001,8.651665800000002,-24.35644458
3.98,398,0.116,0.166,-0.223,4.1825934,-63.08267579999999,-16.959556799999998,4.34302164,8.044330319999998,-24.59135736
3.9899999999999998,399,0.059,0.17,-0.224,7.3911582,-64.9161414,-15.813640800000002,4.39458786,7.4198061,-24.81481098
4.0,400,-0.029,0.238,-0.275,10.7716104,-66.4058322,-13.0061466,4.46334282,6.76663398,-25.01534628
4.01,401,-0.099,0.333,-0.327,13.464512999999998,-63.1972674,-10.6570188,4.58939358,6.15356892,-25.19296326000001
4.02,402,-0.11,0.4,-0.363,18.162768600000003,-52.998615,-8.4224826,4.76701056,5.6436363,-25.33620276
4.03,403,-0.116,0.411,-0.433,24.0069402,-41.4821592,-6.302537999999998,5.00765292,5.2425657,-25.44506478
4.04,404,-0.095,0.391,-0.505,29.1635622,-34.4920716,-3.6096354,5.2998615,4.91025006,-25.5252789
4.05,405,-0.087,0.376,-0.534,32.945085,-29.621928600000004,-1.8334656000000005,5.5863405,4.612311900000001,-25.57684512
4.06,406,-0.069,0.3670000000000001,-0.5820000000000001,37.1849742,-21.7151082,-2.3491278,5.96449278,4.40604702,-25.63414092
4.07,407,-0.033,0.373,-0.6459999999999999,43.1437374,-14.037471,-4.4117766,6.39421128,4.27426668,-25.69716630000001
4.08,408,-0.006999999999999999,0.361,-0.7140000000000001,48.3576552,-8.3651868,-6.417129599999999,6.8812255800000015,4.20551172,-25.77738042
4.09,409,0.016,0.316,-0.838,50.47759979999999,-5.3285094000000015,-6.875496000000001,7.3911582,4.17113424,-25.85759454
4.1,410,0.079,0.242,-0.979,47.6128098,-6.5317212,-4.5263682,7.820876699999999,4.11956802,-25.92061992
4.109999999999999,411,0.122,0.132,-1.217,41.7113424,-14.4385416,-0.22918320000000006,8.24486562,3.98778768,-25.94926782
4.12,412,0.126,-0.052000000000000005,-1.474,27.215505,-28.074942,4.1252976000000015,8.519885460000001,3.70703826,-25.954997400000003
4.13,413,0.02,-0.207,-1.683,8.59437,-42.62807520000001,4.5263682,8.61155874,3.28877892,-25.98937488
4.14,414,-0.059,-0.232,-1.884,-6.016058999999999,-46.00852740000001,2.578311,8.554262940000001,2.8361421,-26.0409411
4.1499999999999995,415,-0.112,-0.172,-2.048,-18.1054728,-44.7480198,0.0,8.37091638,2.39496444,-26.12115522
4.16,416,-0.19,-0.138,-2.011,-26.5279554,-40.8519054,-1.9480572,8.107355700000001,1.99962342,-26.20709892
4.17,417,-0.21600000000000005,-0.111,-1.847,-33.4607472,-25.553926800000006,-4.6982556,7.763580899999999,1.75325148,-26.29304262
4.18,418,-0.175,-0.121,-1.731,-38.961144,-0.11459160000000003,-10.026765,7.36823988,1.75898106,-26.39044548
4.1899999999999995,419,-0.103,-0.139,-1.529,-41.6540466,14.2093584,-10.9434978,6.93852138,1.90795014,-26.4706596
4.2,420,0.019,-0.08,-1.202,-35.5806918,13.464512999999998,-6.9327918,6.554639519999999,2.04546006,-26.52222582
4.21,421,0.029,-0.028,-0.85,-24.8090814,3.2658606,-0.9740286,6.302537999999998,2.07410796,-26.52222582
4.22,422,-0.019,0.006,-0.616,-19.767051,-2.9793816000000004,2.1199446,6.1020027,2.03973048,-26.50503708
4.2299999999999995,423,-0.044,0.049,-0.4920000000000001,-18.2773602,-4.1825934,1.6042823999999998,5.91865614,1.99389384,-26.49357792
4.24,424,-0.058,0.03,-0.434,-15.0687954,-3.8961144,-1.2032118,5.76395748,1.95378678,-26.510766659999994
4.25,425,-0.111,-0.043,-0.379,-11.516455800000001,-2.7501984,-4.2398892,5.64936588,1.91367972,-26.55087372000001
4.26,426,-0.097,-0.18600000000000005,-0.355,-11.172681,3.3231564,-6.130650599999999,5.53477428,1.95378678,-26.60816952
4.27,427,-0.022,-0.294,-0.422,-11.4018642,4.6409598,-6.016058999999999,5.414453099999999,1.99962342,-26.659735739999995
4.28,428,0.054000000000000006,-0.338,-0.513,-12.2040054,3.8961144,-4.0680017999999984,5.28840234,2.04546006,-26.69411322
4.29,429,0.099,-0.29600000000000004,-0.6459999999999999,-14.381245800000002,1.0886202,-2.1199446,5.14516284,2.05118964,-26.71130196
4.3,430,0.122,-0.206,-0.767,-14.0947668,-0.8594370000000001,-1.0313244,5.03057124,2.08556712,-26.73422028
4.31,431,0.132,-0.115,-0.8909999999999999,-11.3445684,-2.0053530000000004,0.4583664000000001,4.91597964,2.0626488000000003,-26.7284907
4.32,432,0.114,-0.063,-1.0,-5.3858052,-2.5210152000000003,3.0366774,4.86441342,2.0340008999999997,-26.699842800000006
4.33,433,0.073,-0.036000000000000004,-1.085,0.6875496,-2.7501984,4.7555514,4.8701430000000006,1.99962342,-26.65400616
4.34,434,0.025,-0.057,-1.149,7.7349330000000025,-2.1199446,4.9274388,4.95035712,1.9767051,-26.60816952
4.35,435,-0.024,-0.121,-1.185,14.0947668,-0.4010706,4.5263682,5.0993262,1.95378678,-26.562332880000003
4.36,436,-0.043,-0.194,-1.193,17.7044022,2.9793816000000004,3.3804522000000006,5.2826727600000005,1.98243468,-26.527955400000003
4.37,437,-0.041,-0.263,-1.2,19.2513888,6.703608600000001,2.9220857999999996,5.47747848,2.04546006,-26.49357792
4.38,438,-0.024,-0.309,-1.206,17.475219,8.5370742,2.6929026,5.65509546,2.13140376,-26.45347086
4.39,439,0.009000000000000001,-0.327,-1.208,13.9228794,9.6829902,3.3804522000000006,5.79833496,2.22307704,-26.40763422
4.3999999999999995,440,0.027000000000000003,-0.306,-1.196,8.9954406,9.797581800000001,4.4117766,5.9129265600000025,2.3147503200000004,-26.350338420000003
4.41,441,0.043,-0.268,-1.1740000000000002,4.0680017999999984,10.0840608,4.7555514,5.953033619999999,2.4064236,-26.29304262
4.42,442,0.055,-0.211,-1.144,-0.8594370000000001,10.886202,4.1252976000000015,5.9473040400000015,2.50955604,-26.23574682
4.43,443,0.065,-0.145,-1.088,-5.3285094000000015,11.45916,2.8074942000000003,5.895737819999999,2.61841806,-26.19563976
4.4399999999999995,444,0.076,-0.097,-1.022,-8.651665800000002,11.172681,1.0313244,5.80406454,2.72728008,-26.166991860000003
4.45,445,0.084,-0.087,-0.966,-11.45916,9.5111028,0.057295800000000015,5.67801378,2.8361421,-26.16126228
4.46,446,0.091,-0.092,-0.912,-13.2926256,6.6463128000000005,0.057295800000000015,5.540503859999999,2.89916748,-26.14980312
4.47,447,0.09,-0.08800000000000001,-0.862,-14.32395,3.666931200000001,0.9740286,5.397264359999999,2.93354496,-26.13261438
4.4799999999999995,448,0.08,-0.066,-0.823,-13.8655836,1.3178034,2.0053530000000004,5.25402486,2.94500412,-26.109696060000005
4.49,449,0.066,-0.036000000000000004,-0.8029999999999999,-12.4904844,-0.22918320000000006,2.86479,5.1279740999999985,2.93354496,-26.08104816
4.5,450,0.054000000000000006,-0.003,-0.8009999999999999,-10.4278356,-0.6875496,3.3231564,4.99046418,2.92781538,-26.052400259999995
4.51,451,0.053,0.025,-0.8109999999999999,-8.250595200000001,-0.6875496,3.4377480000000005,4.91025006,2.91635622,-26.01802278000001
4.52,452,0.056,0.051,-0.83,-5.958763200000001,-0.4010706,2.9793816000000004,4.85295426,2.90489706,-25.98937488
4.53,453,0.062,0.059,-0.861,-3.4377480000000005,-0.22918320000000006,2.4637194,4.81857678,2.89916748,-25.96072698
4.54,454,0.07,0.056,-0.905,-1.9480572,0.0,1.9480572,4.79565846,2.89916748,-25.94353824
4.55,455,0.075,0.037000000000000005,-0.958,-0.4583664000000001,0.7448454000000001,1.5469866,4.38885828,2.96792244,-25.954997400000003
4.56,456,0.085,0.011,-1.012,0.22918320000000006,1.9480572,1.432395,4.39458786,2.98511118,-25.94353824
4.57,457,0.087,-0.01,-1.062,0.22918320000000006,3.0366774,1.0886202,4.39458786,3.01948866,-25.926349500000004
4.58,458,0.08800000000000001,-0.024,-1.112,0.057295800000000015,3.2658606,0.572958,4.39458786,3.04813656,-25.91489034
4.59,459,0.087,-0.046,-1.144,-0.6875496,2.9220857999999996,0.11459160000000003,4.38885828,3.07678446,-25.91489034
4.6,460,0.081,-0.067,-1.146,-4.010706000000001,2.6356068,-0.3437748,4.3315624800000005,3.1054323600000004,-25.91489034
4.61,461,0.083,-0.066,-1.124,-5.958763200000001,2.5210152000000003,-0.6875496,4.2685371,3.13408026,-25.92061992
4.62,462,0.084,-0.058,-1.089,-6.760904399999999,2.6356068,-0.7448454000000001,4.19978214,3.15699858,-25.926349500000004
4.63,463,0.078,-0.043,-1.058,-8.250595200000001,2.6356068,-0.8021411999999999,4.11383844,3.18564648,-25.926349500000004
4.64,464,0.066,-0.02,-1.037,-8.9954406,2.7501984,-1.0886202,4.022165159999999,3.214294380000001,-25.93780866
4.6499999999999995,465,0.056,-0.006999999999999999,-1.021,-8.651665800000002,2.9793816000000004,-1.3750992,3.8731960800000014,3.2314831199999987,-25.94926782
4.66,466,0.054000000000000006,-0.01,-1.006,-8.3651868,2.291832,-1.3178034,3.78725238,3.25440144,-25.96072698
4.67,467,0.062,-0.018000000000000002,-0.988,-8.021412000000002,0.9740286,-0.8021411999999999,3.70703826,3.2658606,-25.96645656
4.68,468,0.077,-0.028,-0.969,-8.021412000000002,-0.11459160000000003,-0.4583664000000001,3.62109456,3.26013102,-25.97218614
4.6899999999999995,469,0.08800000000000001,-0.024,-0.954,-8.59437,-1.0313244,-0.11459160000000003,3.5351508600000003,3.2486718599999995,-25.97218614
4.7,470,0.093,-0.01,-0.951,-8.193299399999999,-1.5469866,0.11459160000000003,3.38618178,3.2658606,-25.9836453
4.71,471,0.1,0.01,-0.958,-7.5057497999999985,-2.291832,0.6875496,3.3116972399999995,3.24294228,-25.97791572
4.72,472,0.106,0.031,-0.969,-6.5317212,-3.3804522000000006,1.145916,3.24294228,3.2085648000000004,-25.96645656
4.7299999999999995,473,0.107,0.042,-0.975,-5.1566220000000005,-4.4117766,1.4896908000000002,3.1913760600000005,3.1627281600000003,-25.954997400000003
4.74,474,0.101,0.037000000000000005,-0.974,-3.3804522000000006,-4.8701430000000006,1.6615782,3.15699858,3.11116194,-25.94353824
4.75,475,0.091,0.017,-0.988,-1.6615782,-4.6409598,1.6615782,3.0366774000000003,3.0997027800000003,-25.93780866
4.76,476,0.078,-0.009000000000000001,-1.0,-0.286479,-4.0680017999999984,1.6615782,3.0366774000000003,3.05959572,-25.926349500000004
4.77,477,0.065,-0.034,-0.998,-0.057295800000000015,-4.1825934,1.6042823999999998,3.0366774000000003,3.0137590800000003,-25.91489034
4.78,478,0.055,-0.051,-0.99,-0.22918320000000006,-4.3544808,1.0886202,3.03094782,2.9736520200000003,-25.90916076
4.79,479,0.045,-0.056,-0.982,-0.8594370000000001,-4.6982556,0.4010706,3.02521824,2.9220858,-25.90916076
4.8,480,0.037000000000000005,-0.051,-0.984,-1.3178034,-4.6409598,-0.22918320000000006,2.9736520200000003,2.84187168,-25.90916076
4.81,481,0.027000000000000003,-0.041,-0.998,-1.4896908000000002,-4.0680017999999984,-0.8021411999999999,2.96219286,2.80176462,-25.92061992
4.82,482,0.022,-0.035,-1.008,-0.5156622000000001,-3.3231564,-1.0886202,2.9564632800000004,2.76738714,-25.93207908
4.83,483,0.024,-0.038,-1.008,0.286479,-2.9220857999999996,-1.432395,2.9564632800000004,2.73873924,-25.94926782
4.84,484,0.029,-0.044,-1.0,0.5156622000000001,-2.578311,-1.7188740000000002,2.96219286,2.71582092,-25.96645656
4.85,485,0.029,-0.045,-0.995,0.572958,-2.7501984,-1.8907613999999997,2.9220858,2.6413363800000003,-25.97791572
4.86,486,0.027000000000000003,-0.047,-0.995,0.572958,-2.9793816000000004,-2.0626488000000003,2.92781538,2.61268848,-26.00083404
4.87,487,0.024,-0.052000000000000005,-0.993,0.4010706,-3.2085648,-2.0053530000000004,2.93354496,2.5783110000000002,-26.02375236
4.88,488,0.021,-0.058,-0.985,0.0,-3.2085648,-1.8334656000000005,2.93354496,2.5496631,-26.04667068
4.89,489,0.022,-0.058,-0.978,-0.3437748,-3.0366774,-1.8334656000000005,2.92781538,2.5210152000000003,-26.069589
4.8999999999999995,490,0.023,-0.053,-0.977,-0.7448454000000001,-2.86479,-1.4896908000000002,2.88197874,2.44080108,-26.07531858
4.91,491,0.028,-0.042,-0.98,-0.6302538000000001,-2.86479,-0.9167328,2.87051958,2.41215318,-26.08677774
4.92,492,0.036000000000000004,-0.033,-0.988,0.0,-2.9220857999999996,-0.057295800000000015,2.87624916,2.38350528,-26.09250732000001
4.93,493,0.046,-0.029,-1.0,0.9740286,-3.151269,0.572958,2.88197874,2.3491277999999998,-26.08677774
4.9399999999999995,494,0.049,-0.031,-1.005,1.7188740000000002,-3.3804522000000006,1.2032118,2.90489706,2.3147503200000004,-26.07531858
4.95,495,0.047,-0.036000000000000004,-1.003,2.0626488000000003,-3.4950437999999995,2.0053530000000004,2.88770832,2.28037284,-26.06385942
4.96,496,0.043,-0.045,-0.998,1.9480572,-3.4377480000000005,2.4064236,2.91062664,2.24599536,-26.0409411
4.97,497,0.039,-0.05,-0.987,1.0886202,-2.8074942000000003,2.4637194,2.9220858,2.21734746,-26.01802278000001
4.9799999999999995,498,0.034,-0.047,-0.984,0.5156622000000001,-2.0053530000000004,2.3491278,2.92781538,2.19442914,-25.99510446
4.99,499,0.031,-0.039,-0.986,0.11459160000000003,-1.6042823999999998,2.0053530000000004,2.93354496,2.1772404,-25.97791572
5.0,500,0.031,-0.03,-0.984,0.0,-1.6042823999999998,1.8334656000000005,2.8074942000000003,2.12567418,-25.954997400000003
5.01,501,0.032,-0.022,-0.983,0.0,-1.5469866,1.4896908000000002,2.81322378,2.10848544,-25.94353824
5.02,502,0.033,-0.021,-0.983,0.286479,-1.6615782,1.2032118,2.81322378,2.0912967,-25.93207908
5.03,503,0.036000000000000004,-0.02,-0.985,0.3437748,-1.3178034,0.8021411999999999,2.81895336,2.07983754,-25.926349500000004
5.04,504,0.04,-0.018000000000000002,-0.988,0.5156622000000001,-0.9740286,0.4583664000000001,2.82468294,2.06837838,-25.92061992
5.05,505,0.045,-0.018000000000000002,-0.99,0.572958,-0.6302538000000001,0.286479,2.53247436,2.08556712,-25.93207908
5.06,506,0.05,-0.02,-0.991,0.6302538000000001,-0.3437748,0.22918320000000006,2.53820394,2.07983754,-25.926349500000004
5.07,507,0.052000000000000005,-0.022,-0.994,0.572958,-0.22918320000000006,0.3437748,2.54393352,2.07410796,-25.926349500000004
5.08,508,0.049,-0.024,-0.994,0.4010706,-0.3437748,0.3437748,2.5496631,2.07410796,-25.92061992
5.09,509,0.046,-0.026,-0.995,0.286479,-0.11459160000000003,0.3437748,2.55539268,2.07410796,-25.91489034
5.1,510,0.042,-0.024,-0.995,0.22918320000000006,0.0,0.286479,2.19442914,2.05691922,-25.92061992
5.11,511,0.038,-0.022,-0.998,0.22918320000000006,-0.057295800000000015,0.1718874,2.20015872,2.05691922,-25.92061992
5.12,512,0.035,-0.022,-0.999,0.5156622000000001,-0.1718874,0.1718874,2.2058883,2.05118964,-25.92061992
5.13,513,0.034,-0.024,-0.997,0.8021411999999999,-0.11459160000000003,0.22918320000000006,2.21161788,2.05118964,-25.91489034
5.14,514,0.032,-0.029,-0.995,0.9167328,-0.057295800000000015,0.11459160000000003,2.22307704,2.05118964,-25.91489034
5.1499999999999995,515,0.031,-0.036000000000000004,-0.994,0.9167328,-0.22918320000000006,0.0,2.10848544,1.97097552,-25.90343118
5.16,516,0.03,-0.041,-0.992,0.8594370000000001,-0.3437748,0.0,2.1199446,1.96524594,-25.90343118
5.17,517,0.031,-0.04,-0.989,0.9167328,-0.4010706,-0.22918320000000006,2.12567418,1.9595163600000003,-25.90916076
5.18,518,0.029,-0.04,-0.988,1.0886202,-0.3437748,-0.3437748,2.13713334,1.9595163600000003,-25.90916076
5.1899999999999995,519,0.028,-0.04,-0.988,1.145916,-0.4010706,-0.286479,2.1485925000000003,1.95378678,-25.91489034
5.2,520,0.028,-0.037000000000000005,-0.988,1.2032118,-0.3437748,-0.3437748,2.07410796,1.89649098,-25.90916076
5.21,521,0.027000000000000003,-0.034,-0.987,1.432395,-0.11459160000000003,-0.3437748,2.0912967,1.8907613999999997,-25.91489034
5.22,522,0.025,-0.036000000000000004,-0.981,1.3750992,0.0,-0.4010706,2.10848544,1.8907613999999997,-25.92061992
5.2299999999999995,523,0.029,-0.037000000000000005,-0.979,1.2032118,0.4010706,-0.4010706,2.1199446,1.89649098,-25.92061992
5.24,524,0.034,-0.038,-0.983,1.432395,0.5156622000000001,-0.286479,2.13140376,1.90222056,-25.926349500000004
5.25,525,0.04,-0.041,-0.991,1.3178034,0.4010706,-0.4010706,2.08556712,1.91367972,-25.93207908
5.26,526,0.042,-0.039,-0.995,1.0886202,0.4010706,-0.4583664000000001,2.09702628,1.9194093000000003,-25.93780866
5.27,527,0.042,-0.039,-0.993,1.0886202,0.6302538000000001,-0.3437748,2.10848544,1.92513888,-25.93780866
5.28,528,0.04,-0.043,-0.989,0.8594370000000001,0.7448454000000001,-0.22918320000000006,2.1199446,1.93086846,-25.94353824
5.29,529,0.038,-0.047,-0.988,0.5156622000000001,0.6302538000000001,-0.1718874,2.12567418,1.93659804,-25.94353824
5.3,530,0.037000000000000005,-0.049,-0.988,0.4583664000000001,0.11459160000000003,-0.11459160000000003,2.02827132,1.90222056,-25.93780866
5.31,531,0.037000000000000005,-0.045,-0.986,0.1718874,-0.11459160000000003,-0.057295800000000015,2.0340008999999997,1.90222056,-25.93780866
5.32,532,0.036000000000000004,-0.038,-0.988,-0.057295800000000015,0.057295800000000015,0.0,2.0340008999999997,1.90222056,-25.93780866
5.33,533,0.037000000000000005,-0.033,-0.991,0.0,0.22918320000000006,-0.057295800000000015,2.0340008999999997,1.90222056,-25.94353824
5.34,534,0.04,-0.033,-0.996,0.22918320000000006,0.22918320000000006,-0.057295800000000015,2.0340008999999997,1.90795014,-25.94353824
5.35,535,0.043,-0.032,-1.001,0.4583664000000001,0.11459160000000003,-0.1718874,1.87357266,1.92513888,-25.94926782
5.36,536,0.043,-0.032,-1.003,0.8021411999999999,0.057295800000000015,-0.11459160000000003,1.87930224,1.92513888,-25.94926782
5.37,537,0.04,-0.033,-0.997,0.9740286,0.0,-0.057295800000000015,1.8907613999999997,1.92513888,-25.954997400000003
5.38,538,0.037000000000000005,-0.035,-0.991,0.6302538000000001,0.286479,0.0,1.89649098,1.92513888,-25.954997400000003
5.39,539,0.031,-0.035,-0.985,0.4010706,0.4583664000000001,0.0,1.90222056,1.93086846,-25.94926782
5.3999999999999995,540,0.029,-0.033,-0.985,0.11459160000000003,0.572958,0.0,1.73033316,1.82200644,-25.93207908
5.41,541,0.026,-0.032,-0.988,0.0,0.572958,-0.22918320000000006,1.73033316,1.82773602,-25.93780866
5.42,542,0.027000000000000003,-0.032,-0.992,0.057295800000000015,0.6875496,-0.286479,1.73033316,1.8334656000000003,-25.93780866
5.43,543,0.03,-0.033,-0.995,0.22918320000000006,0.8594370000000001,-0.4010706,1.73033316,1.84492476,-25.94353824
5.4399999999999995,544,0.034,-0.035,-0.996,0.5156622000000001,0.8594370000000001,-0.4583664000000001,1.73606274,1.85065434,-25.94926782
5.45,545,0.035,-0.036000000000000004,-0.991,0.6875496,0.8594370000000001,-0.3437748,1.6902260999999998,1.84492476,-25.94926782
5.46,546,0.036000000000000004,-0.035,-0.988,0.6302538000000001,0.9167328,-0.1718874,1.70168526,1.85638392,-25.94926782
5.47,547,0.036000000000000004,-0.035,-0.99,0.6875496,1.0886202,0.0,1.7074148399999998,1.8621135,-25.94926782
5.4799999999999995,548,0.038,-0.037000000000000005,-0.993,0.8021411999999999,1.0886202,0.11459160000000003,1.71314442,1.87357266,-25.94926782
5.49,549,0.04,-0.038,-0.994,0.8594370000000001,0.8021411999999999,0.1718874,1.7246035799999997,1.88503182,-25.94926782
5.5,550,0.042,-0.039,-0.991,0.8594370000000001,0.6875496,0.057295800000000015,1.6844965200000002,1.90222056,-25.94926782
5.51,551,0.041,-0.04,-0.987,0.8594370000000001,0.4010706,0.0,1.6959556799999995,1.90795014,-25.94926782
5.52,552,0.041,-0.042,-0.987,0.8021411999999999,0.3437748,0.0,1.70168526,1.91367972,-25.94926782
5.53,553,0.038,-0.042,-0.987,0.7448454000000001,0.4010706,0.11459160000000003,1.71314442,1.91367972,-25.94353824
5.54,554,0.036000000000000004,-0.041,-0.988,0.7448454000000001,0.5156622000000001,0.286479,1.7188740000000002,1.9194093000000003,-25.94353824
5.55,555,0.037000000000000005,-0.04,-0.988,0.7448454000000001,0.8594370000000001,0.4010706,1.6959556799999995,1.92513888,-25.93780866
5.56,556,0.041,-0.039,-0.989,0.6302538000000001,1.0313244,0.4583664000000001,1.7074148399999998,1.93659804,-25.93207908
5.57,557,0.049,-0.044,-0.992,0.572958,0.7448454000000001,0.572958,1.71314442,1.94232762,-25.926349500000004
5.58,558,0.054000000000000006,-0.047,-0.99,0.4010706,0.286479,0.6875496,1.71314442,1.9480572000000005,-25.92061992
5.59,559,0.056,-0.045,-0.986,0.4010706,-0.286479,0.8021411999999999,1.7188740000000002,1.94232762,-25.90916076
5.6,560,0.055,-0.041,-0.983,0.3437748,-0.8594370000000001,0.7448454000000001,1.6902260999999998,1.97097552,-25.90916076
5.61,561,0.05,-0.035,-0.983,0.286479,-1.0886202,0.6875496,1.6959556799999995,1.9595163600000003,-25.90343118
5.62,562,0.045,-0.03,-0.983,0.286479,-1.0886202,0.6302538000000001,1.70168526,1.9480572000000005,-25.8977016
5.63,563,0.041,-0.032,-0.983,0.22918320000000006,-0.9740286,0.5156622000000001,1.70168526,1.93659804,-25.891972020000004
5.64,564,0.037000000000000005,-0.033,-0.984,0.11459160000000003,-0.6875496,0.4010706,1.70168526,1.93086846,-25.88624244
5.6499999999999995,565,0.037000000000000005,-0.034,-0.984,0.1718874,-0.4010706,0.286479,1.5870936600000003,1.8907613999999997,-25.88624244
5.66,566,0.037000000000000005,-0.033,-0.987,0.1718874,-0.4583664000000001,0.11459160000000003,1.5870936600000003,1.88503182,-25.880512860000003
5.67,567,0.037000000000000005,-0.032,-0.991,0.057295800000000015,-0.5156622000000001,-0.11459160000000003,1.5870936600000003,1.87930224,-25.88624244
5.68,568,0.036000000000000004,-0.034,-0.995,0.1718874,-0.5156622000000001,-0.286479,1.59282324,1.87357266,-25.88624244
5.6899999999999995,569,0.035,-0.036000000000000004,-0.997,0.286479,-0.4583664000000001,-0.4010706,1.59282324,1.87357266,-25.891972020000004
5.7,570,0.033,-0.036000000000000004,-0.995,0.4010706,-0.3437748,-0.4010706,1.5412570200000002,1.83919518,-25.891972020000004
5.71,571,0.032,-0.039,-0.99,0.057295800000000015,0.0,-0.4583664000000001,1.5412570200000002,1.83919518,-25.8977016
5.72,572,0.03,-0.04,-0.987,-0.3437748,0.22918320000000006,-0.5156622000000001,1.53552744,1.83919518,-25.90343118
5.7299999999999995,573,0.031,-0.038,-0.987,-0.6875496,0.057295800000000015,-0.4583664000000001,1.52979786,1.83919518,-25.90916076
5.74,574,0.032,-0.038,-0.988,-0.5156622000000001,-0.057295800000000015,-0.4583664000000001,1.52406828,1.83919518,-25.91489034
5.75,575,0.032,-0.038,-0.989,-0.286479,0.1718874,-0.286479,1.47250206,1.79908812,-25.90916076
5.76,576,0.03,-0.039,-0.995,0.11459160000000003,0.1718874,-0.286479,1.4782316400000002,1.79908812,-25.91489034
5.77,577,0.027000000000000003,-0.043,-0.993,0.3437748,0.22918320000000006,-0.286479,1.4782316400000002,1.79908812,-25.91489034
5.78,578,0.027000000000000003,-0.05,-0.987,0.22918320000000006,0.286479,-0.286479,1.48396122,1.8048176999999999,-25.92061992
5.79,579,0.032,-0.056,-0.982,0.0,0.1718874,-0.286479,1.48396122,1.8048176999999999,-25.92061992
5.8,580,0.034,-0.054000000000000006,-0.982,-0.11459160000000003,0.1718874,-0.286479,1.52406828,1.78189938,-25.92061992
5.81,581,0.034,-0.047,-0.987,-0.1718874,0.3437748,0.0,1.52406828,1.78762896,-25.92061992
5.82,582,0.033,-0.039,-0.991,0.0,0.5156622000000001,0.22918320000000006,1.52406828,1.7933585399999998,-25.92061992
5.83,583,0.035,-0.034,-0.991,0.3437748,0.6875496,0.5156622000000001,1.52406828,1.79908812,-25.91489034
5.84,584,0.037000000000000005,-0.035,-0.993,0.6302538000000001,1.0313244,0.6302538000000001,1.53552744,1.81054728,-25.90343118
5.85,585,0.039,-0.04,-0.989,0.6875496,1.2605076000000002,0.572958,1.52979786,1.82200644,-25.8977016
5.86,586,0.04,-0.038,-0.991,0.6875496,1.5469866,0.4583664000000001,1.53552744,1.83919518,-25.891972020000004
5.87,587,0.042,-0.036000000000000004,-0.995,0.572958,1.7761698,0.4010706,1.5412570200000002,1.85638392,-25.88624244
5.88,588,0.044,-0.036000000000000004,-0.998,0.5156622000000001,1.8334656000000005,0.4010706,1.5469866,1.87357266,-25.880512860000003
5.89,589,0.044,-0.036000000000000004,-0.998,0.6302538000000001,1.7761698,0.4010706,1.5527161800000002,1.8907613999999997,-25.880512860000003
5.8999999999999995,590,0.043,-0.035,-1.0,0.572958,1.6615782,0.4010706,1.53552744,1.91367972,-25.87478328000001
5.91,591,0.043,-0.036000000000000004,-0.999,0.4010706,1.6042823999999998,0.5156622000000001,1.5412570200000002,1.93086846,-25.8690537
5.92,592,0.041,-0.035,-0.995,0.1718874,1.3178034,0.572958,1.5412570200000002,1.94232762,-25.86332412
5.93,593,0.037000000000000005,-0.036000000000000004,-0.993,0.0,1.3178034,0.5156622000000001,1.5412570200000002,1.9595163600000003,-25.85186496
5.9399999999999995,594,0.037000000000000005,-0.036000000000000004,-0.99,-0.057295800000000015,1.2605076000000002,0.5156622000000001,1.5412570200000002,1.97097552,-25.84613538
5.95,595,0.036000000000000004,-0.035,-0.988,-0.1718874,1.145916,0.4010706,1.50687954,1.96524594,-25.840405800000003
5.96,596,0.037000000000000005,-0.035,-0.99,-0.1718874,1.0313244,0.3437748,1.50687954,1.9767051,-25.83467622
5.97,597,0.037000000000000005,-0.035,-0.991,0.0,0.8021411999999999,0.286479,1.50687954,1.98816426,-25.83467622
5.9799999999999995,598,0.037000000000000005,-0.035,-0.994,0.0,0.6302538000000001,0.4010706,1.50687954,1.99389384,-25.82894664
5.99,599,0.037000000000000005,-0.037000000000000005,-0.994,0.057295800000000015,0.5156622000000001,0.286479,1.50687954,1.99962342,-25.82321706
6.0,600,0.037000000000000005,-0.039,-0.992,0.1718874,0.3437748,0.11459160000000003,1.45531332,1.96524594,-25.82321706
6.01,601,0.038,-0.042,-0.992,0.0,0.5156622000000001,0.11459160000000003,1.45531332,1.97097552,-25.81748748
6.02,602,0.038,-0.044,-0.988,-0.22918320000000006,0.4010706,-0.057295800000000015,1.44958374,1.9767051,-25.81748748
6.03,603,0.041,-0.043,-0.985,-0.5156622000000001,0.572958,-0.057295800000000015,1.44385416,1.98243468,-25.81748748
6.04,604,0.042,-0.04,-0.986,-0.4583664000000001,0.6302538000000001,0.0,1.44385416,1.98816426,-25.81748748
6.05,605,0.043,-0.04,-0.993,-0.5156622000000001,0.6875496,0.0,1.41520626,2.005353,-25.82321706
6.06,606,0.044,-0.04,-0.994,-0.6302538000000001,0.7448454000000001,0.0,1.40947668,2.01108258,-25.82321706
6.07,607,0.045,-0.038,-0.993,-0.4583664000000001,0.6302538000000001,0.057295800000000015,1.4037471,2.01681216,-25.81748748
6.08,608,0.044,-0.038,-0.993,-0.286479,0.6302538000000001,0.11459160000000003,1.39801752,2.02254174,-25.81748748
6.09,609,0.045,-0.039,-0.996,-0.22918320000000006,0.4583664000000001,0.1718874,1.39801752,2.02827132,-25.81748748
6.1,610,0.046,-0.041,-1.001,-0.5156622000000001,0.5156622000000001,0.11459160000000003,1.38082878,2.04546006,-25.81748748
6.11,611,0.047,-0.041,-1.0,-0.572958,0.5156622000000001,0.057295800000000015,1.36936962,2.04546006,-25.8117579
6.12,612,0.046,-0.04,-1.0,-0.6302538000000001,0.4583664000000001,0.057295800000000015,1.36364004,2.05118964,-25.8117579
6.13,613,0.045,-0.039,-0.999,-0.8021411999999999,0.572958,0.11459160000000003,1.3579104599999998,2.05691922,-25.8117579
6.14,614,0.043,-0.037000000000000005,-0.996,-0.8021411999999999,0.6875496,0.1718874,1.3464512999999998,2.06837838,-25.8117579
6.15,615,0.04,-0.037000000000000005,-0.992,-0.9167328,0.8594370000000001,0.3437748,1.32926256,2.06837838,-25.80602832
6.16,616,0.038,-0.038,-0.992,-1.0886202,1.3178034,0.3437748,1.3178034,2.07983754,-25.80029874
6.17,617,0.037000000000000005,-0.041,-0.991,-1.432395,1.6615782,0.4583664000000001,1.30061466,2.09702628,-25.79456916
6.18,618,0.039,-0.041,-0.992,-1.432395,1.9480572,0.5156622000000001,1.2891555000000001,2.11421502,-25.78883958
6.1899999999999995,619,0.043,-0.042,-0.998,-1.3178034,2.1199446,0.7448454000000001,1.27196676,2.13713334,-25.77738042
6.2,620,0.047,-0.041,-0.999,-1.2032118,2.0626488000000003,0.9167328,1.2605076000000002,2.16005166,-25.76592126
6.21,621,0.048,-0.039,-0.988,-1.2032118,1.9480572,1.0313244,1.24904844,2.1772404,-25.7544621
6.22,622,0.049,-0.039,-0.981,-1.432395,1.7761698,1.2032118,1.23758928,2.19442914,-25.743002940000004
6.2299999999999995,623,0.047,-0.041,-0.976,-1.9480572,1.3750992,1.2605076000000002,1.21467096,2.21161788,-25.73154378
6.24,624,0.046,-0.04,-0.977,-2.4637194,1.0886202,1.2605076000000002,1.19175264,2.22307704,-25.714355040000004
6.25,625,0.045,-0.041,-0.98,-2.6356068,0.9167328,1.0313244,1.16310474,2.22880662,-25.70289588
6.26,626,0.045,-0.04,-0.989,-2.7501984,0.9167328,0.7448454000000001,1.13445684,2.24026578,-25.69716630000001
6.27,627,0.042,-0.036000000000000004,-0.991,-2.578311,0.7448454000000001,0.6302538000000001,1.11153852,2.24599536,-25.69143672
6.28,628,0.041,-0.033,-0.989,-2.1772404,0.4583664000000001,0.6302538000000001,1.0886202,2.25172494,-25.679977560000005
6.29,629,0.042,-0.033,-0.984,-2.0053530000000004,0.286479,0.572958,1.06570188,2.25172494,-25.67424798
6.3,630,0.047,-0.034,-0.988,-1.8334656000000005,0.11459160000000003,0.5156622000000001,1.04278356,2.25745452,-25.668518400000004
6.31,631,0.049,-0.035,-0.99,-2.1199446,0.11459160000000003,0.286479,1.01986524,2.25745452,-25.668518400000004
6.32,632,0.05,-0.034,-0.992,-2.1772404,0.1718874,0.286479,0.9969469199999998,2.25745452,-25.66278882000001
6.33,633,0.048,-0.032,-0.994,-1.9480572,0.1718874,0.5156622000000001,0.97975818,2.2631841,-25.65705924
6.34,634,0.047,-0.028,-0.994,-1.8334656000000005,0.22918320000000006,0.3437748,0.95683986,2.2631841,-25.65705924
6.35,635,0.043,-0.028,-0.994,-1.6042823999999998,0.3437748,0.1718874,0.92246238,2.2631841,-25.65132966
6.36,636,0.042,-0.024,-0.992,-1.4896908000000002,0.572958,0.057295800000000015,0.90527364,2.26891368,-25.65132966
6.37,637,0.04,-0.021,-0.993,-1.3178034,0.572958,0.0,0.89381448,2.2746432600000004,-25.65132966
6.38,638,0.039,-0.02,-0.995,-1.145916,0.7448454000000001,-0.057295800000000015,0.8823553199999999,2.28037284,-25.65132966
6.39,639,0.04,-0.022,-0.997,-0.8021411999999999,0.8021411999999999,-0.1718874,0.87089616,2.28610242,-25.65132966
6.4,640,0.041,-0.02,-0.999,-0.3437748,0.572958,-0.11459160000000003,0.8021412000000001,2.2631841,-25.65132966
6.41,641,0.043,-0.02,-1.002,0.0,0.1718874,-0.22918320000000006,0.8021412000000001,2.2631841,-25.65132966
6.42,642,0.043,-0.021,-0.999,0.0,0.11459160000000003,-0.286479,0.8021412000000001,2.2631841,-25.65705924
6.43,643,0.038,-0.019,-0.987,-0.057295800000000015,0.22918320000000006,-0.3437748,0.8021412000000001,2.26891368,-25.66278882000001
6.4399999999999995,644,0.032,-0.019,-0.979,0.057295800000000015,0.8021411999999999,-0.286479,0.8021412000000001,2.2746432600000004,-25.66278882000001
6.45,645,0.03,-0.018000000000000002,-0.977,0.1718874,1.3750992,-0.286479,0.7734933,2.25745452,-25.66278882000001
6.46,646,0.033,-0.018000000000000002,-0.981,0.22918320000000006,1.8907613999999997,-0.286479,0.7792228800000001,2.2746432600000004,-25.66278882000001
6.47,647,0.038,-0.017,-0.979,0.572958,2.1772404,-0.286479,0.7849524600000001,2.29756158,-25.668518400000004
6.4799999999999995,648,0.044,-0.016,-0.979,1.145916,2.2345362,-0.3437748,0.79641162,2.3204799,-25.668518400000004
6.49,649,0.049,-0.022,-0.979,1.2032118,2.0626488000000003,-0.4010706,0.8078707799999998,2.3376686399999995,-25.67424798
6.5,650,0.054000000000000006,-0.024,-0.978,1.2032118,1.7188740000000002,-0.22918320000000006,0.8078707799999998,2.36631654,-25.67424798
6.51,651,0.057,-0.028,-0.98,1.3750992,1.2032118,-0.057295800000000015,0.8193299399999999,2.3777757,-25.679977560000005
6.52,652,0.059,-0.034,-0.983,1.0886202,0.572958,0.11459160000000003,0.8307891,2.38350528,-25.67424798
